time,seconds_elapsed,z,y,x
1776820795344801300,0.05680126953125,9.525328966844082,2.329665328968316,-0.10579300954001955
1776820795354842000,0.066842041015625,9.526398057380318,2.3255846355259417,-0.09879483948205597
1776820795364884200,0.07688427734375,9.52745721104443,2.3215458815291523,-0.09183626164896413
1776820795374925000,0.086925048828125,9.52838893893659,2.317932805598527,-0.0859113011799287
1776820795384966100,0.096966064453125,9.529200255319475,2.3148200804054735,-0.07941988420085981
1776820795395008000,0.107008056640625,9.52949193174243,2.313834576499462,-0.07316265957015566
1776820795405049000,0.117049072265625,9.529107900860906,2.3155763056002554,-0.0677385521621909
1776820795415090200,0.127090087890625,9.528637945261597,2.3176409830451012,-0.06301990787615068
1776820795425132000,0.137132080078125,9.52848012435138,2.3184053915463387,-0.05893091696288902
1776820795435173000,0.147173095703125,9.528537407496572,2.3182656908147035,-0.05509383671777322
1776820795445214000,0.1572138671875,9.52881739348173,2.3172325483746827,-0.050246314488211645
1776820795455256300,0.16725634765625,9.529258122986555,2.3155169766284525,-0.045259242224064654
1776820795465297200,0.177297119140625,9.529600652813912,2.314189089025557,-0.040045110605238
1776820795475338200,0.187338134765625,9.529614096817374,2.3142088166393338,-0.03529133335702354
1776820795485380000,0.197380126953125,9.529164599484204,2.3161326243087648,-0.03156669366057031
1776820795495421200,0.207421142578125,9.528437454253435,2.31913925877884,-0.029300502294255418
1776820795505462300,0.217462158203125,9.527695111453532,2.3222088754825294,-0.02718705608752789
1776820795515504000,0.227504150390625,9.526904837858677,2.3254719689317045,-0.024669417560659348
1776820795525545200,0.237545166015625,9.5262630328238,2.328127159615606,-0.02238253731605364
1776820795535586000,0.2475859375,9.525912319689988,2.3295805732943116,-0.02058050199592253
1776820795545628200,0.257628173828125,9.525561022034287,2.3310336947120724,-0.01800738412188366
1776820795555669000,0.2676689453125,9.525123215138912,2.3328538958765566,-0.015008495708490954
1776820795565710000,0.2777099609375,9.524542200380564,2.3352435674920677,-0.01292309285273659
1776820795575752200,0.287752197265625,9.523610472488404,2.3390470514282584,-0.01119377685058862
1776820795585793300,0.297793212890625,9.522576453265547,2.343262915557623,-0.0090236291664507
1776820795595834400,0.30783447265625,9.521751108357309,2.3466103262893854,-0.007016680678899865
1776820795605876200,0.317876220703125,9.52098538468182,2.349719544351101,-0.00630598026367661
1776820795615917300,0.327917236328125,9.520231935966015,2.3527637343525885,-0.007602341358791454
1776820795625958100,0.337958251953125,9.519481409859656,2.3557966723077,-0.01082930690277135
1776820795636000300,0.348000244140625,9.518836682215332,2.3583701760575173,-0.015244978195353177
1776820795646041000,0.358041015625,9.51820773666203,2.3608631619170306,-0.019912103498354553
1776820795656082200,0.368082275390625,9.518034718182683,2.3615208951734004,-0.024470805699040647
1776820795666124000,0.3781240234375,9.518577739018202,2.359290505772829,-0.028281182883610017
1776820795676165000,0.3881650390625,9.519389639922975,2.3559674988299606,-0.031240822707070036
1776820795686207000,0.39820703125,9.52014659577012,2.3528951056472955,-0.03322305973258335
1776820795696248000,0.408248046875,9.520678510689734,2.350725360392779,-0.03430483850374585
1776820795706289200,0.4182890625,9.521031561911105,2.3492833448909223,-0.034711789036553815
1776820795716331300,0.428331298828125,9.521271215885877,2.3483026632905006,-0.03514150167373009
1776820795726372400,0.438372314453125,9.521803130805491,2.3461304338179527,-0.035728370784129944
1776820795736413200,0.4484130859375,9.522340306422114,2.3439213794663547,-0.03785153466727351
1776820795746455300,0.458455322265625,9.522914306917786,2.341532292372733,-0.04108191544022411
1776820795756496100,0.46849609375,9.523473694366215,2.3392288377359507,-0.0422934923202265
1776820795766537200,0.478537109375,9.524196163421868,2.336343345427513,-0.03919501941481139
1776820795776579000,0.4885791015625,9.524871286204457,2.33370072196424,-0.032293293185357466
1776820795786620200,0.4986201171875,9.524667288064956,2.3346321575954554,-0.025289752832532392
1776820795796661200,0.5086611328125,9.523491814544796,2.3394445263132453,-0.022754293237894307
1776820795806703000,0.518703125,9.52132265381217,2.348205048134923,-0.027739707834494764
1776820795816744200,0.528744140625,9.518612225809692,2.3589888924777505,-0.03990588936421554
1776820795826786000,0.5387861328125,9.515814704045653,2.3699442939952013,-0.05531263056760653
1776820795836827100,0.5488271484375,9.513125903353094,2.380310059056431,-0.070045281034871
1776820795846868000,0.558867919921875,9.510834577545523,2.389060351745039,-0.08233148819808847
1776820795856910300,0.568910400390625,9.509007362118362,2.3960040334030985,-0.09144550876570864
1776820795866951200,0.578951171875,9.507679328384995,2.4010855744510886,-0.09602570356228388
1776820795876992300,0.5889921875,9.507152089640497,2.4031582890719174,-0.09636045194198377
1776820795887034000,0.5990341796875,9.507292374894023,2.4026624683789906,-0.0948915210337378
1776820795897075200,0.6090751953125,9.507666468903421,2.4012400343604385,-0.09314482349688187
1776820795907117000,0.619116943359375,9.508077387791872,2.3996596333011984,-0.0920691114236135
1776820795917158100,0.629158203125,9.508497659030557,2.398001052439213,-0.0919042853838764
1776820795927199200,0.63919921875,9.508609302711486,2.3974689913891254,-0.0941074031850323
1776820795937241000,0.649240966796875,9.508572477832436,2.397391542238742,-0.09955293697351589
1776820795947282200,0.6592822265625,9.508687628644704,2.396570873505622,-0.10824032049374654
1776820795957323000,0.669322998046875,9.508767123621702,2.3957032968908547,-0.11988254436473361
1776820795967365400,0.679365478515625,9.508589428967237,2.3956474750503896,-0.13398351389891466
1776820795977406200,0.68940625,9.508628007411955,2.3946933891959485,-0.1478338331402745
1776820795987448300,0.6994482421875,9.509232987567781,2.3915381400354203,-0.15944412750303744
1776820795997489200,0.7094892578125,9.510397355172037,2.3863626370936633,-0.16724924829602242
1776820796007530200,0.7195302734375,9.511911851388215,2.3799821422763165,-0.1719884056471288
1776820796017572000,0.729572021484375,9.5137320525527,2.372531972400844,-0.174300792509038
1776820796027613200,0.73961328125,9.51576443516314,2.364321777938306,-0.174832780493889
1776820796037654300,0.749654296875,9.517447858205436,2.3575480460196734,-0.17478757137898354
1776820796047696100,0.759696044921875,9.51867476965189,2.3525967072226104,-0.17470027668802066
1776820796057737200,0.7697373046875,9.519133619335292,2.350661501376331,-0.1757297475999221
1776820796067779000,0.779779052734375,9.518800441858172,2.351829522242397,-0.1780031541583128
1776820796077820400,0.7898203125,9.518155129691959,2.3541703862801193,-0.18151888892799614
1776820796087861200,0.799861328125,9.517682251483201,2.355709870807081,-0.18637601010296492
1776820796097903400,0.8099033203125,9.51751858535409,2.3559265822976827,-0.19196053223703055
1776820796107944200,0.819944091796875,9.517477084299921,2.3555349526315927,-0.1986114962925203
1776820796117986300,0.829986328125,9.517657117041946,2.3541778389342127,-0.2060678036478348
1776820796128027100,0.840027099609375,9.518051084795594,2.3519687845826147,-0.2130174583889544
1776820796138068200,0.850068115234375,9.518369064703583,2.3501418614163994,-0.2187166198786348
1776820796148110000,0.860110107421875,9.518128826206922,2.350800909847021,-0.22207588544497264
1776820796158151200,0.870151123046875,9.517169041264056,2.354446865133941,-0.22457857071459292
1776820796168192300,0.880192138671875,9.515731701937318,2.359994708519429,-0.22738900675913318
1776820796178234400,0.890234375,9.514086272817849,2.3664028219960627,-0.22950232738498597
1776820796188275500,0.900275390625,9.512588143214582,2.372288080642372,-0.23095979618430137
1776820796198317300,0.9103173828125,9.511533665725588,2.376392447221279,-0.2321447316525504
1776820796208358400,0.9203583984375,9.510845098939537,2.3790935228735206,-0.2326497950978577
1776820796218399200,0.930399169921875,9.510305000713467,2.381313829271495,-0.23208330205520614
1776820796228441300,0.94044140625,9.509691837251186,2.3839076451569796,-0.23055295068277046
1776820796238482200,0.950482177734375,9.508906824353337,2.387278582894802,-0.2279288309905678
1776820796248524300,0.960524169921875,9.507971004807949,2.3913160217173397,-0.22474877618234604
1776820796258565000,0.970565185546875,9.507021741259097,2.395415127599239,-0.22118814282501115
1776820796268606200,0.980606201171875,9.506411500406264,2.398129501124471,-0.2179474073381163
1776820796278648000,0.99064794921875,9.506228545054793,2.3991024378098547,-0.21530622691325843
1776820796288689200,1.000689208984375,9.506506192952394,2.3981236559055743,-0.21386633030325172
1776820796298731300,1.010731201171875,9.50710825049877,2.3957770927794275,-0.21337556937793267
1776820796308772400,1.0207724609375,9.50783831833899,2.3929317863509056,-0.2128035964425653
1776820796318814200,1.030814208984375,9.508702241691946,2.3895934357084334,-0.21168661164399236
1776820796328855300,1.040855224609375,9.509749704918265,2.3855998360276223,-0.2096456986672245
1776820796338896400,1.050896484375,9.510750406393408,2.3819310843870043,-0.20596890985062344
1776820796348938200,1.060938232421875,9.511561138254404,2.379055382820219,-0.2016706464011222
1776820796358979300,1.070979248046875,9.512125201877952,2.377162116419524,-0.19737481237072496
1776820796369021200,1.081021240234375,9.512343813064694,2.376628740195185,-0.19315321262031793
1776820796379062300,1.091062255859375,9.51240694142878,2.3767048741713164,-0.18914629680020734
1776820796389103000,1.10110302734375,9.512451365092396,2.3767463752254843,-0.18625654844176023
1776820796399145200,1.111145263671875,9.5126097705245,2.376240325399488,-0.184628618446365
1776820796409186000,1.12118603515625,9.512795063963532,2.375643528550118,-0.18290444326857103
1776820796419228400,1.131228515625,9.512861114937067,2.3755181486047805,-0.18102471220288424
1776820796429269200,1.141269287109375,9.512934764695167,2.375386485049128,-0.17887199114840477
1776820796439311400,1.151311279296875,9.512870467287302,2.375797257807106,-0.176905622978881
1776820796449352200,1.161352294921875,9.51246305553019,2.377543370822072,-0.1752960140914656
1776820796459393300,1.171393310546875,9.51184638493657,2.3800544768601655,-0.17453772480376065
1776820796469435100,1.18143505859375,9.511220946514605,2.3825563766784965,-0.17458996644765137
1776820796479476200,1.191476318359375,9.510715335080027,2.3845284074038267,-0.17515607589781285
1776820796489518000,1.20151806640625,9.510359945771098,2.385914454934746,-0.1757828660266474
1776820796499559200,1.21155908203125,9.510130228668451,2.386750028976053,-0.17681270226472987
1776820796509600300,1.221600341796875,9.510115615621208,2.386738630799204,-0.17772400842336936
1776820796519642000,1.23164208984375,9.510425996744631,2.385567248932272,-0.17692429114673286
1776820796529683500,1.241683349609375,9.510722933864592,2.3845132098346946,-0.17516900844462216
1776820796539725300,1.251725341796875,9.510900043997168,2.383922404334694,-0.17333160041701048
1776820796549766400,1.261766357421875,9.511029807856678,2.383477144785225,-0.17231822212338446
1776820796559808300,1.271808349609375,9.511279983225464,2.3824831653118133,-0.17229385486710816
1776820796569849300,1.281849365234375,9.511467614752053,2.3816705337546766,-0.1732416388449259
1776820796579890200,1.29189013671875,9.511376429337263,2.3818254320554435,-0.17609005054598673
1776820796589932300,1.301932373046875,9.51100934959054,2.382914250205457,-0.18128277861718087
1776820796599973000,1.31197314453125,9.51162426661849,2.3802517529979346,-0.1838738910889253
1776820796610015200,1.32201513671875,9.513706918111444,2.3722769747264683,-0.17910990982381625
1776820796620056000,1.33205615234375,9.515635255825519,2.365383561950922,-0.16752002806141972
1776820796630098400,1.342098388671875,9.51621217893064,2.363991376940161,-0.15359151075100524
1776820796640139300,1.35213916015625,9.51423591042161,2.3724393256813285,-0.14565085394484922
1776820796650181400,1.362181396484375,9.509788283362985,2.390181756990403,-0.14607356373579242
1776820796660222200,1.37222216796875,9.504866024529933,2.4091047763861715,-0.15546753375595435
1776820796670263300,1.38226318359375,9.500707735806703,2.4244572438187895,-0.1700987559756264
1776820796680305200,1.39230517578125,9.498115381225944,2.433472471053898,-0.1854165174210444
1776820796690346200,1.40234619140625,9.497513323679566,2.434938451953232,-0.1968092509098351
1776820796700388000,1.41238818359375,9.498387183904647,2.4313686306424436,-0.1988032194723375
1776820796710429200,1.42242919921875,9.499412435299158,2.427899493227154,-0.19209740169076248
1776820796720471000,1.432470947265625,9.499692421284317,2.4276395271167157,-0.18104783735014496
1776820796730512100,1.44251220703125,9.498889288207888,2.431585342133045,-0.1699328796231188
1776820796740554200,1.45255419921875,9.497317508846521,2.43829463051334,-0.16145864566322415
1776820796750595300,1.46259521484375,9.495644022676348,2.4451035798758265,-0.15690881860544903
1776820796760637200,1.47263720703125,9.494047693395615,2.4514073561951517,-0.15517068796753883
1776820796770678300,1.48267822265625,9.492648347991704,2.4568051235854624,-0.15537382759051396
1776820796780719400,1.49271923828125,9.491881455272436,2.4597017218098043,-0.1562639448306523
1776820796790761200,1.50276123046875,9.491915357542037,2.4595333795055745,-0.15684654875788837
1776820796800802300,1.51280224609375,9.492623798072337,2.4568477936834094,-0.1562580813454464
1776820796810844200,1.52284423828125,9.493376662266254,2.4540672230541705,-0.15421240086201576
1776820796820885200,1.53288525390625,9.49366073990464,2.453147185599804,-0.1511333952754736
1776820796830927000,1.542927001953125,9.49325332814753,2.4549141952723263,-0.14802793094026856
1776820796840968200,1.55296826171875,9.492248535019158,2.4589167089119552,-0.14589029785706661
1776820796851010300,1.56301025390625,9.491008764091134,2.46370043605715,-0.1458899873298127
1776820796861051400,1.573051513671875,9.489682483923435,2.4686565971598027,-0.14837910986496133
1776820796871093200,1.58309326171875,9.48829424443543,2.4737919142216445,-0.15187203001463784
1776820796881134300,1.59313427734375,9.4871567648381,2.4779358821585773,-0.1551728981909342
1776820796891176200,1.60317626953125,9.48682183379531,2.479078914713859,-0.1573956705406308
1776820796901217300,1.61321728515625,9.48717254692912,2.4777076263606546,-0.15779446059986948
1776820796911258000,1.623258056640625,9.487812013876438,2.4753318371400237,-0.15666322808023542
1776820796921300200,1.63330029296875,9.48857072328925,2.4725536045983434,-0.15457940754350274
1776820796931341000,1.643341064453125,9.489051784804463,2.4708880094736814,-0.15164821292981503
1776820796941383200,1.653383056640625,9.4889079924196,2.4716204154014587,-0.14857519869264213
1776820796951424000,1.663424072265625,9.488193706670403,2.4744682060480114,-0.1467083727743011
1776820796961466400,1.67346630859375,9.486946921479701,2.4792989872053264,-0.14592753372807055
1776820796971507200,1.683507080078125,9.485545237988234,2.484596509091556,-0.14709295164509675
1776820796981549300,1.69354931640625,9.484422371438145,2.4887130044996737,-0.14962635171338914
1776820796991590100,1.703590087890625,9.483613977664708,2.491621585422754,-0.15253211962487548
1776820797001632300,1.71363232421875,9.482945284622907,2.494029815608263,-0.1548832675945945
1776820797011673000,1.723673095703125,9.482484681373833,2.4956834280341864,-0.15650056659812106
1776820797021715200,1.733715087890625,9.482532612168788,2.495469493022561,-0.15684324255594984
1776820797031756300,1.74375634765625,9.483266187140345,2.492655312384665,-0.15726881102425977
1776820797041798100,1.753798095703125,9.485142502406239,2.485489658538997,-0.15762476658876984
1776820797051839200,1.763839111328125,9.48861105529964,2.4722768334835767,-0.15661759884022175
1776820797061881300,1.77388134765625,9.493469601246714,2.4537431056663395,-0.15346563761532306
1776820797071922200,1.783922119140625,9.49968832963109,2.429840690422803,-0.14893510891306214
1776820797081964000,1.793964111328125,9.506872103655338,2.401915449403971,-0.14331755215907468
1776820797092005000,1.804005126953125,9.51416050709784,2.3732018344864247,-0.1379225155819673
1776820797102047200,1.814047119140625,9.521307456243038,2.344552955368161,-0.1345179039034061
1776820797112088300,1.82408837890625,9.528178511056304,2.31650467249155,-0.134077201798046
1776820797122129200,1.834129150390625,9.534475565373898,2.2903917415916917,-0.13521611530063674
1776820797132171300,1.844171142578125,9.540015079322457,2.2670666878446935,-0.13749624386075884
1776820797142212000,1.854212158203125,9.544495439606905,2.2480649041242895,-0.1384996213501785
1776820797152254200,1.864254150390625,9.547241523444653,2.236410122165829,-0.1380352917740587
1776820797162295000,1.874294921875,9.547570024746657,2.235047455510497,-0.13728531365697272
1776820797172337200,1.884337158203125,9.545372222441435,2.2445773542694747,-0.13455042706667444
1776820797182378000,1.8943779296875,9.540675004535913,2.2648468198381364,-0.1281120189164765
1776820797192420000,1.904420166015625,9.533945404019951,2.2934314015485344,-0.12007452327287756
1776820797202461000,1.9144609375,9.526279399436712,2.325442304445803,-0.11283468994614668
1776820797212503300,1.92450341796875,9.518678276783227,2.356610911300033,-0.10746933612124994
1776820797222544100,1.934544189453125,9.511970303577185,2.383731850198656,-0.10322820968646555
1776820797232586200,1.944586181640625,9.506666936472058,2.4049286597453055,-0.10011036079372279
1776820797242627000,1.954626953125,9.503180847921968,2.4187349206492303,-0.09851470736642368
1776820797252669200,1.964669189453125,9.501582765075565,2.4250131241358814,-0.098000163706718
1776820797262710000,1.9747099609375,9.501368830063939,2.4258636034853756,-0.09757655886663123
1776820797272752000,1.984752197265625,9.501997191095352,2.4234521584294737,-0.09666241229693405
1776820797282793000,1.99479296875,9.503059267368911,2.419344138588756,-0.09498597611784934
1776820797292835000,2.0048349609375,9.504248769414424,2.414733868314326,-0.09326307044853456
1776820797302876000,2.0148759765625,9.505367544311284,2.4104022688508033,-0.0913682788110338
1776820797312918300,2.024918212890625,9.506302194812893,2.4067979607485235,-0.08921279954388737
1776820797322959000,2.034958984375,9.507124617111682,2.403634674412012,-0.0867518071246799
1776820797333001200,2.045001220703125,9.507977434548735,2.4003313950829206,-0.0845288977776654
1776820797343042000,2.0550419921875,9.50877004623115,2.3972474575929343,-0.08269957259180954
1776820797353084200,2.065084228515625,9.50931014445722,2.3951592531420287,-0.08120336095099337
1776820797363125000,2.075125,9.509767825096844,2.3933583411999044,-0.08072756013278849
1776820797373167000,2.0851669921875,9.51026291513741,2.391357522771507,-0.08191278786198236
1776820797383208000,2.0952080078125,9.510704813686013,2.389524754386395,-0.08404005481479689
1776820797393250300,2.105250244140625,9.510927516525983,2.388568184313923,-0.085943979606824
1776820797403292200,2.115292236328125,9.511004088893532,2.388232084227353,-0.086972263208637
1776820797413333200,2.125333251953125,9.510843345373868,2.3888730124793947,-0.0866904597257264
1776820797423375000,2.135375,9.510418397960066,2.3906287701055406,-0.0850780378267169
1776820797433416200,2.145416259765625,9.510091650223732,2.3919804769754407,-0.08321976967416703
1776820797443458000,2.1554580078125,9.50992389244139,2.392694178202748,-0.08197475631544365
1776820797453499100,2.1654990234375,9.509831537982821,2.3930879998259247,-0.08134811231708154
1776820797463541000,2.175541015625,9.509734507349133,2.393467062271386,-0.0814923796259798
1776820797473582000,2.18558203125,9.509384378737211,2.3948227146640417,-0.08252637144937179
1776820797483624200,2.195624267578125,9.508514610165356,2.3982163026250896,-0.08395451368950307
1776820797493665300,2.205665283203125,9.507280684456228,2.4030429921291767,-0.08576420259312727
1776820797503707100,2.21570703125,9.506001750561595,2.408035831980407,-0.0877541617007926
1776820797513748200,2.225748291015625,9.504878884011507,2.4124101015418766,-0.08926381734507158
1776820797523790000,2.2357900390625,9.504180964875221,2.4151212601967154,-0.0902616418765392
1776820797533831200,2.2458310546875,9.503743157979846,2.416854075338691,-0.09006790940272622
1776820797543873000,2.255873046875,9.503276124989986,2.418739012302458,-0.08869191747494042
1776820797553914000,2.2659140625,9.502856438273191,2.4204244811713695,-0.08727710050726309
1776820797563956000,2.2759560546875,9.502275423514842,2.422741525942087,-0.08655486891362815
1776820797573997000,2.2859970703125,9.501096442863345,2.427385552355647,-0.0862094530094415
1776820797584039200,2.2960390625,9.499003269976377,2.4355295497141776,-0.08696144955367781
1776820797594080300,2.306080322265625,9.496338434681295,2.44579229279235,-0.08966354811922647
1776820797604122000,2.3161220703125,9.493595857974887,2.456268824751675,-0.09369505039132199
1776820797614163200,2.3261630859375,9.491268876332043,2.465079030933976,-0.09782579352050087
1776820797624205000,2.336205078125,9.489851410749553,2.4703823980391024,-0.10162271071858703
1776820797634247200,2.3462470703125,9.48918797840476,2.4728362209320065,-0.1038037080194801
1776820797644288000,2.3562880859375,9.488820314136147,2.474243457381427,-0.10377441799291409
1776820797654330000,2.366330078125,9.488494150921701,2.475551032848656,-0.10264355079946108
1776820797664371000,2.376370849609375,9.487966912177205,2.4776079653784633,-0.10160836253282614
1776820797674413300,2.386413330078125,9.486903666859865,2.481690266256034,-0.10115035309963859
1776820797684454100,2.3964541015625,9.485314351841806,2.487742990423739,-0.10165128835909999
1776820797694496300,2.406496337890625,9.483382506996392,2.494999245162308,-0.10384319977965205
1776820797704537000,2.416537109375,9.481303362634778,2.502757896465063,-0.10715977698173373
1776820797714579200,2.4265791015625,9.479398405796289,2.509813367934525,-0.11067161189443431
1776820797724620000,2.4366201171875,9.478025948399305,2.514854284711182,-0.1136956541570369
1776820797734662100,2.446662109375,9.477097143116593,2.518260001501441,-0.11539743483993224
1776820797744703000,2.456702880859375,9.476416759636997,2.5208134853765367,-0.11591218856219201
1776820797754745000,2.4667451171875,9.47581645565629,2.5230507429093123,-0.1161938733140938
1776820797764787200,2.476787109375,9.474927397862077,2.526353876107931,-0.11682124796481802
1776820797774828300,2.486828369140625,9.473532144111394,2.531547937619686,-0.11778683246080764
1776820797784870100,2.4968701171875,9.471766303482651,2.5380840613901614,-0.11909049893789923
1776820797794911200,2.5069111328125,9.470011568769811,2.5445012349560856,-0.12141694172462447
1776820797804953000,2.516953125,9.46850291777253,2.5499530706211924,-0.1248361847167369
1776820797814994200,2.526994140625,9.467297049114107,2.5542726873859762,-0.12804292660248465
1776820797825036000,2.5370361328125,9.466500345778465,2.557087452545762,-0.1305719792892225
1776820797835077000,2.5470771484375,9.466203408658505,2.558082893323898,-0.13255841299924068
1776820797845119000,2.557118896484375,9.466065461492537,2.5584584486380217,-0.13519283488974906
1776820797855160000,2.56716015625,9.465666233041881,2.5596602256432175,-0.1402087359561585
1776820797865202200,2.5772021484375,9.464660855391621,2.5628359330698847,-0.1497369542147033
1776820797875244000,2.587244140625,9.46298327756822,2.568088154509663,-0.1649304682259448
1776820797885285000,2.59728515625,9.460505489277839,2.575912856785953,-0.1839667022052221
1776820797895327000,2.607326904296875,9.45729354149401,2.5861323452442884,-0.20470307289957998
1776820797905368000,2.6173681640625,9.45367652004063,2.597510648348927,-0.22653359550619498
1776820797915410000,2.627409912109375,9.450216150453686,2.6077821592554447,-0.2515721751728095
1776820797925451000,2.637450927734375,9.447301139789818,2.615196819426119,-0.2821712750433944
1776820797935493000,2.6474931640625,9.445218488296867,2.6186577735349537,-0.31765202774200585
1776820797945534000,2.657533935546875,9.443816804805397,2.6189766302257773,-0.3545430673636496
1776820797955576000,2.667576171875,9.44316038672328,2.616348035287857,-0.38965153441745787
1776820797965617200,2.6776171875,9.443488303503393,2.610125799772143,-0.4220797494113445
1776820797975659000,2.687658935546875,9.44506125190854,2.5992417099252343,-0.4529532823091373
1776820797985701000,2.697701171875,9.44830768648386,2.581418176203966,-0.48594103088192636
1776820797995742200,2.7077421875,9.454198498088122,2.552260763041675,-0.5238644092259929
1776820798005784000,2.7177841796875,9.4632451433748,2.5085288810819386,-0.5698265709884465
1776820798015825200,2.7278251953125,9.474999294054507,2.4503661765791476,-0.6249075299583375
1776820798025867300,2.7378671875,9.48855377215445,2.3808104097940026,-0.6851996477052569
1776820798035908000,2.747908203125,9.503906824108958,2.2998222716294228,-0.746315795186162
1776820798045950200,2.7579501953125,9.520261162060498,2.2102029371112586,-0.8062322845537215
1776820798055992000,2.767991943359375,9.536619007143377,2.117830066101253,-0.859084242362529
1776820798066033200,2.778033203125,9.55194341752529,2.0271239592596886,-0.9063911332648247
1776820798076075000,2.788074951171875,9.565468669530748,1.943566408998519,-0.9458899076994508
1776820798086115800,2.79811572265625,9.576944587790965,1.869694678710401,-0.9781588039457797
1776820798096157700,2.80815771484375,9.58665232733488,1.8056586982600389,-1.003022903828323
1776820798106198800,2.81819873046875,9.594998715397715,1.7494852678783237,-1.0225961307611315
1776820798116241000,2.828240966796875,9.602270752227305,1.6995907716356218,-1.0383485572967677
1776820798126282000,2.838281982421875,9.608639702737332,1.6550462581187486,-1.051302439155057
1776820798136323800,2.84832373046875,9.614625791409612,1.6121996345609426,-1.0630725911214947
1776820798146366000,2.858365966796875,9.620262335991859,1.5692014737032354,-1.0763736789822578
1776820798156406800,2.86840673828125,9.625505497342347,1.526539120671153,-1.0907274907663465
1776820798166449000,2.878448974609375,9.63024012464881,1.4851818588882684,-1.1059177533745765
1776820798176489700,2.88848974609375,9.634430562075972,1.4474958329640328,-1.119331653960049
1776820798186531800,2.89853173828125,9.638341013517975,1.4120822820164263,-1.1308555760804564
1776820798196572700,2.90857275390625,9.642317515933513,1.3783616525918245,-1.138519534837082
1776820798206615000,2.918614990234375,9.646386372807621,1.347528122910857,-1.140949684593454
1776820798216657000,2.928656982421875,9.651061963403224,1.3174050795868038,-1.1366021569084375
1776820798226698000,2.938697998046875,9.656555300122498,1.2878420082330704,-1.1237567038606853
1776820798236739800,2.94873974609375,9.663073888236283,1.2576651888951658,-1.1016743436511605
1776820798246781000,2.958781005859375,9.670473350837826,1.2267710150681435,-1.0711635431185365
1776820798256822800,2.96882275390625,9.678066874706744,1.1964780950699,-1.0362753312192856
1776820798266863900,2.97886376953125,9.685340665102004,1.1684531930688768,-0.999609588253498
1776820798276906000,2.988906005859375,9.692087216752768,1.1427576838634907,-0.9632875441588461
1776820798286947800,2.99894775390625,9.698195470499991,1.120023435616493,-0.9278737740155308
1776820798296989000,3.008989013671875,9.70383026151657,1.0992528886578976,-0.8931731936428695
1776820798307031000,3.019031005859375,9.709554484382272,1.078308300306648,-0.855687512596324
1776820798317072000,3.02907177734375,9.715556939667463,1.0562191450301557,-0.8140762760523707
1776820798327114000,3.039114013671875,9.721531337901949,1.0333838475614785,-0.7709240206114948
1776820798337154800,3.04915478515625,9.72710416959822,1.0104220011036842,-0.729958315429464
1776820798347197000,3.059197021484375,9.732059161657094,0.9890115488063543,-0.6923167131688446
1776820798357239000,3.069239013671875,9.736427293738723,0.9706112381104379,-0.6559562367599457
1776820798367280000,3.079280029296875,9.740494981569052,0.9532990879774093,-0.619956556487456
1776820798377322000,3.089322021484375,9.74459949427843,0.9343755571249872,-0.5831491034960374
1776820798387363000,3.099363037109375,9.749069917690754,0.9110126555856317,-0.5440996071988716
1776820798397405000,3.109405029296875,9.753827925872802,0.8839945194743574,-0.5017349950043484
1776820798407446800,3.11944677734375,9.758913266313076,0.8542094759330153,-0.4520591099483892
1776820798417488000,3.12948779296875,9.763988669881224,0.8229705803215503,-0.3970294793069362
1776820798427529700,3.13952978515625,9.768522806179522,0.7931997845012694,-0.34235746646411713
1776820798437570800,3.14957080078125,9.772570035743712,0.7645318353563547,-0.28774662749031554
1776820798447613000,3.159613037109375,9.776056124293804,0.7375796771533787,-0.2346984529896639
1776820798457654000,3.169654052734375,9.779258135205506,0.7090573470242321,-0.1836754459073767
1776820798467695900,3.17969580078125,9.78238474279344,0.6763969672422856,-0.13349626010493373
1776820798477738000,3.189738037109375,9.785305014154314,0.6412601874094456,-0.0837783260055352
1776820798487778800,3.19977880859375,9.787845346286892,0.6062340283442288,-0.029890556592296343
1776820798497821000,3.209821044921875,9.789705294939875,0.5757185516364872,0.024902847290621137
1776820798507861800,3.21986181640625,9.790883106547593,0.5507926020314917,0.075407949712337
1776820798517904000,3.22990380859375,9.791596807774901,0.5297230721263214,0.12022637110003269
1776820798527946000,3.239946044921875,9.792070855027436,0.5102607216894627,0.15936101579684764
1776820798537987000,3.249987060546875,9.792467160868645,0.4890436000071466,0.1970270401126705
1776820798548029000,3.26002880859375,9.792714413627982,0.4654667269235477,0.2376779254581779
1776820798558070000,3.270070068359375,9.792610368731617,0.44063134167883544,0.2845234093938023
1776820798568111900,3.28011181640625,9.791798467826842,0.4169256180511787,0.3424293626565486
1776820798578153700,3.29015380859375,9.789907539513706,0.39836741337981074,0.4116006601687521
1776820798588194800,3.30019482421875,9.786762811747193,0.3873400791373104,0.48949466824289406
1776820798598236700,3.310236572265625,9.782495217430592,0.38566717748902735,0.5696104440197348
1776820798608277800,3.32027783203125,9.777483526748417,0.3911383023764938,0.6466855734590441
1776820798618320000,3.33031982421875,9.772092481359838,0.4005336515029892,0.7184560936842114
1776820798628362000,3.340362060546875,9.76627298142612,0.4125454667381942,0.7874890056390315
1776820798638402800,3.35040283203125,9.759679574510455,0.42456623246483505,0.8595105780158191
1776820798648445000,3.36044482421875,9.751803726568818,0.4357113844007253,0.9395965066436678
1776820798658486000,3.370486083984375,9.74210066320002,0.445169204304181,1.031332248793915
1776820798668527900,3.38052783203125,9.730298581725359,0.45439865881185976,1.133664057629928
1776820798678569700,3.39056982421875,9.716221541056036,0.4673408502323553,1.2438014987155794
1776820798688610800,3.40061083984375,9.700209732931851,0.4869454586841166,1.3561676487013696
1776820798698653000,3.41065283203125,9.683046416684984,0.5135176776587963,1.4646604643851517
1776820798708694000,3.420694091796875,9.665024437782169,0.5463407737217844,1.568170377089828
1776820798718736000,3.43073583984375,9.646682140883803,0.5819135703517123,1.6653241987660525
1776820798728778000,3.440778076171875,9.628398880696297,0.6179513541448861,1.7556928903467952
1776820798738818800,3.45081884765625,9.6098543392241,0.6515501107554882,1.8429786673508584
1776820798748861000,3.46086083984375,9.590800094664097,0.6813110427688807,1.929442898838967
1776820798758901800,3.47090185546875,9.570530629095435,0.7101123359698802,2.0176979592666027
1776820798768943900,3.48094384765625,9.548262683185934,0.7435793559595942,2.1090730514109133
1776820798778986000,3.490986083984375,9.523778230270743,0.7835079001136124,2.2032047487869857
1776820798789027000,3.501027099609375,9.49720469612181,0.8294829578902572,2.2990024796791375
1776820798799069000,3.51106884765625,9.468844863077997,0.8795456503067165,2.3953657354995608
1776820798809110000,3.521110107421875,9.439607662677764,0.9303085999470203,2.4897204279765486
1776820798819152000,3.53115185546875,9.409708198976515,0.9796071761231869,2.5822692400753495
1776820798829193700,3.54119384765625,9.379683647590875,1.0231623132765293,2.6730378907591104
1776820798839234800,3.55123486328125,9.350649276286363,1.058433825404942,2.7596111355796453
1776820798849276700,3.561276611328125,9.322799730852246,1.0878201519522814,2.841212144945562
1776820798859319000,3.571319091796875,9.295475670596957,1.1158873587250708,2.9187928127542135
1776820798869359900,3.58135986328125,9.267049786579609,1.1461889734864235,2.996398615004122
1776820798879402000,3.591402099609375,9.237574685770273,1.1808883117500693,3.0729552004620433
1776820798889442800,3.60144287109375,9.208707487726212,1.2188362034808844,3.1439652577087283
1776820798899485000,3.61148486328125,9.179631615367532,1.2601352322705088,3.211978763487935
1776820798909526800,3.62152685546875,9.149949009287356,1.3051007476784289,3.278040550677478
1776820798919568000,3.63156787109375,9.120077602636814,1.3519620137050747,3.3416777410686014
1776820798929610000,3.64160986328125,9.089737993952632,1.398731217534095,3.404491924639046
1776820798939651000,3.651651123046875,9.058344492301345,1.4450060619749128,3.4682404664501547
1776820798949693000,3.66169287109375,9.0267785566926,1.4918481849096714,3.5301632541388273
1776820798959735000,3.671735107421875,8.994912761354446,1.5424780096895991,3.5892432196170088
1776820798969775900,3.68177587890625,8.963725011408329,1.5983051108516753,3.6424455252334473
1776820798979818000,3.69181787109375,8.932970392182469,1.6589260221615432,3.6905759344130753
1776820798989859800,3.70185986328125,8.904636278101801,1.7231148550860582,3.729435534161329
1776820798999901000,3.71190087890625,8.878532115030287,1.7895616960704326,3.760253281751275
1776820799009943000,3.721943115234375,8.85503024341166,1.8585281186603009,3.7821506407827137
1776820799019985000,3.73198486328125,8.835047193568945,1.9287765438847242,3.793705177237093
1776820799030026000,3.74202587890625,8.817743007546662,2.0000003900125622,3.7970787453234194
1776820799040067800,3.75206787109375,8.803100149688124,2.0719581033729018,3.792476512224972
1776820799050109000,3.76210888671875,8.790301458391546,2.1469183595500887,3.7804441291257738
1776820799060150800,3.77215087890625,8.778250955113768,2.226781000816077,3.7622014932096004
1776820799070193000,3.78219287109375,8.767545436704157,2.3100879373170433,3.7368443491131065
1776820799080234000,3.79223388671875,8.758448522534966,2.3946157939150927,3.704831254258752
1776820799090276000,3.802276123046875,8.750483827266097,2.481095515233278,3.666551500225067
1776820799100318200,3.812318115234375,8.742175433126091,2.5670211098000406,3.627001872386038
1776820799110359300,3.822359375,8.73199773798287,2.6507600079774853,3.591101999226212
1776820799120401200,3.832401123046875,8.718916722613573,2.7323314989879726,3.5616312823310494
1776820799130443000,3.842443115234375,8.703596988406776,2.8124332097068425,3.536668982771039
1776820799140484000,3.852484130859375,8.68721517792642,2.8932164729490872,3.511698499904573
1776820799150526000,3.86252587890625,8.669905146685242,2.9753070193976163,3.4857799225330353
1776820799160567000,3.872567138671875,8.654830327150226,3.0567040306240316,3.4526623735681174
1776820799170609000,3.88260888671875,8.643988030618429,3.1345886498153206,3.4097280717268585
1776820799180651300,3.8926513671875,8.6370468331784,3.206745539009571,3.3598461427047845
1776820799190692000,3.902692138671875,8.634001474133134,3.2715719391852613,3.304723682680726
1776820799200734200,3.912734130859375,8.633566589847206,3.330466611224413,3.2465231303855773
1776820799210776000,3.922776123046875,8.634144681996107,3.3861575187861916,3.1868314627498386
1776820799220817200,3.932817138671875,8.634310686212778,3.4424849706858396,3.125440297719836
1776820799230859000,3.94285888671875,8.634183844962715,3.4992768252268434,3.062088061749935
1776820799240901000,3.952901123046875,8.634632173252106,3.555468083526194,2.9953514440387488
1776820799250942000,3.96294189453125,8.636847511214018,3.6099086987659335,2.922980912093818
1776820799260984000,3.972984130859375,8.64055454903841,3.6631633190914985,2.8447286286339164
1776820799271026200,3.983026123046875,8.64381793474853,3.7170886782854793,2.763700450719893
1776820799281067000,3.99306689453125,8.646989550521969,3.771196700569987,2.6791864765167235
1776820799291109000,4.003109130859375,8.650666193208098,3.822253810851276,2.5935879219472406
1776820799301150200,4.013150146484375,8.65617998819351,3.865906197834015,2.509120124973357
1776820799311192000,4.023192138671875,8.664858969211577,3.9004318600311874,2.424312866912037
1776820799321234200,4.033234130859375,8.676052563399075,3.9280055111333727,2.3382167380839585
1776820799331275300,4.043275146484375,8.688397665709257,3.952167892487347,2.249999963840097
1776820799341317000,4.053317138671875,8.70092455432713,3.975485931971669,2.1586574587911365
1776820799351359200,4.063359130859375,8.713354996833205,3.9993922927379604,2.062213977341354
1776820799361400000,4.073400146484375,8.72451878040433,4.02539182639122,1.9619854243949055
1776820799371442200,4.083442138671875,8.732560632562636,4.054700922983884,1.8633631376013158
1776820799381484000,4.093484130859375,8.737313380047679,4.0863752874031665,1.7695329073898494
1776820799391525000,4.103525146484375,8.739376157796382,4.118998623110354,1.6815281684614718
1776820799401567200,4.113567138671875,8.739738561367988,4.151769842855632,1.5969294385842978
1776820799411609000,4.123609130859375,8.739801689732074,4.183552636085451,1.5113434512354433
1776820799421650200,4.133650146484375,8.740608914461731,4.213136457966268,1.4218470124445854
1776820799431692000,4.143692138671875,8.742057359704376,4.241091217340529,1.326648562619835
1776820799441734100,4.153734130859375,8.743663041335344,4.267644293223321,1.227180472651869
1776820799451775000,4.16377490234375,8.744538070604204,4.293456487610936,1.1268097347557544
1776820799461817000,4.173817138671875,8.743869377562403,4.319123720569908,1.0297209411397577
1776820799471859200,4.183859130859375,8.742843541646003,4.342288323058188,0.936823315603286
1776820799481900300,4.193900390625,8.742726637268065,4.3608544918403025,0.8473940968297421
1776820799491942100,4.203942138671875,8.744476111283898,4.373092334383726,0.7619543130185454
1776820799501984000,4.21398388671875,8.747802040836214,4.38014312967807,0.6787007141400129
1776820799512025000,4.224025146484375,8.75230636651814,4.383400670169293,0.5943576029917225
1776820799522067000,4.23406689453125,8.758218220910429,4.382393246692419,0.5085034296933562
1776820799532109000,4.244109130859375,8.764470851564408,4.378898390313982,0.42384277702849354
1776820799542150100,4.254150146484375,8.76951878260374,4.375826435522735,0.34364823692701757
1776820799552192300,4.264192138671875,8.7726892293334,4.374828948917985,0.2668208717036992
1776820799562234000,4.274234130859375,8.774283805048466,4.375418439243734,0.1950339483330026
1776820799572275200,4.284275146484375,8.775120840394496,4.376223618146777,0.12784489241288974
1776820799582317000,4.294317138671875,8.777011184185742,4.373865949104726,0.06110856696264818
1776820799592359200,4.304359130859375,8.781907724055648,4.364444625286757,-0.007908864295249804
1776820799602400000,4.31439990234375,8.790941509860753,4.345478935793042,-0.08084199855900369
1776820799612442000,4.324442138671875,8.804922104418278,4.314957540801167,-0.1576966993138194
1776820799622484200,4.334484130859375,8.82388399451971,4.272281305374205,-0.2388754646796733
1776820799632525300,4.344525390625,8.84596723151207,4.220920535971224,-0.3211289831375703
1776820799642567200,4.354567138671875,8.868368448412419,4.166778903678059,-0.4005511140944436
1776820799652609000,4.364609130859375,8.890088697311281,4.11205771793127,-0.4772035611422732
1776820799662650000,4.374650146484375,8.910244765633344,4.059113186468184,-0.5491318292124197
1776820799672692000,4.38469189453125,8.928945374450088,4.008161874648929,-0.6155560565061867
1776820799682734000,4.394734130859375,8.94743964703977,3.9569168405801056,-0.675667922315374
1776820799692776200,4.404776123046875,8.965539367353916,3.9063492673814295,-0.7279695527650415
1776820799702817300,4.4148173828125,8.984017273330688,3.855248902480304,-0.7713048366226255
1776820799712859100,4.424859130859375,9.005639907073974,3.796169229263067,-0.8111267785970121
1776820799722901000,4.43490087890625,9.031012833261489,3.727266373428702,-0.8477445907678455
1776820799732942000,4.444942138671875,9.058925507059692,3.650098378074169,-0.8849206944085657
1776820799742984000,4.45498388671875,9.087093616923688,3.5684178737312555,-0.928179478963837
1776820799753026000,4.465026123046875,9.113914403831958,3.4859549868389963,-0.9772888892434537
1776820799763067000,4.47506689453125,9.137851159736513,3.4072067365556955,-1.0300337334159761
1776820799773109200,4.485109130859375,9.158384244677423,3.335722047534585,-1.0804517420761286
1776820799783151000,4.495151123046875,9.175977184513211,3.2725682567462324,-1.123443400127813
1776820799793192200,4.505192138671875,9.191929371404647,3.214446030384302,-1.1602213712964207
1776820799803234000,4.515234130859375,9.207661193543672,3.1563945311710238,-1.1943522620223461
1776820799813276200,4.525276123046875,9.22398513635695,3.0942358888998625,-1.2305385509081184
1776820799823317000,4.53531689453125,9.240877234447002,3.0259003115594387,-1.2729790778830647
1776820799833359000,4.545359130859375,9.257929491534828,2.951993071566522,-1.3216985389970242
1776820799843401200,4.555401123046875,9.273813289365172,2.8767230187878012,-1.3752389905266462
1776820799853443000,4.565443115234375,9.28774770669341,2.8040453205898404,-1.430195007942617
1776820799863484200,4.575484130859375,9.300048969861864,2.7348794299051162,-1.4831928770281373
1776820799873526000,4.585526123046875,9.310378640696406,2.670619431440532,-1.5346205741874872
1776820799883568000,4.595568115234375,9.31818609957695,2.615562437868118,-1.5813374633073807
1776820799893609000,4.60560888671875,9.323487128594516,2.5699784983009097,-1.6242475074902176
1776820799903651000,4.615651123046875,9.327414531171321,2.5270968034297225,-1.6683910389907657
1776820799913693200,4.625693115234375,9.331234381720423,2.4814827609851955,-1.7148456239126622
1776820799923734300,4.635734375,9.335663304078578,2.431501317111403,-1.761700606328994
1776820799933776100,4.645776123046875,9.340579133170843,2.376172374729812,-1.8104640527151523
1776820799943818000,4.65581787109375,9.345833984959125,2.3191318061247466,-1.8567115707576274
1776820799953859000,4.665859130859375,9.350790146061778,2.2664789510846135,-1.8963683122329413
1776820799963901000,4.67590087890625,9.35584041518867,2.2177846244119106,-1.9287455642245708
1776820799973943000,4.685943115234375,9.361365316089987,2.1733028008677064,-1.9524248382367193
1776820799983985200,4.695985107421875,9.367412195038796,2.134376419493556,-1.9663241842515766
1776820799994026200,4.706026123046875,9.373781730070709,2.099173442556709,-1.973851218755543
1776820800004068000,4.716068115234375,9.380544648334384,2.0645193316742776,-1.9782684506759047
1776820800014110200,4.726110107421875,9.38748876838386,2.0280204697079953,-1.9830714670434593
1776820800024151000,4.736151123046875,9.395091644603013,1.98855793563053,-1.987035840629786
1776820800034193200,4.746193115234375,9.403397700655459,1.9475170463204383,-1.9883822868026793
1776820800044235000,4.756235107421875,9.412503382652998,1.9056249470084905,-1.9858947077706455
1776820800054277000,4.766277099609375,9.42232802657485,1.863517012988776,-1.979241387361288
1776820800064318200,4.776318115234375,9.432279511746763,1.8242083542987704,-1.96844848292917
1776820800074360000,4.786360107421875,9.44112858863473,1.791816635390371,-1.9557174500413237
1776820800084403000,4.79640283203125,9.44802828502059,1.7661961641825734,-1.9456737565413116
1776820800094444000,4.806444091796875,9.453481289729476,1.7451750034637747,-1.9381468681678176
1776820800104486100,4.816486083984375,9.458930202785133,1.7269290065467358,-1.927878133740276
1776820800114528300,4.8265283203125,9.464912199804186,1.7105642933316527,-1.9130537818349898
1776820800124570000,4.836570068359375,9.47158101004362,1.6943438108928501,-1.8943860523745417
1776820800134611200,4.846611083984375,9.478850124263763,1.676683212648332,-1.8736409321181475
1776820800144653000,4.856653076171875,9.487001282015441,1.6574794766150414,-1.8493014406315982
1776820800154695000,4.86669482421875,9.49679553079903,1.6347735776796937,-1.8189872586496174
1776820800164736000,4.876736083984375,9.50858416827023,1.6081334080353378,-1.7807548508889972
1776820800174778000,4.886778076171875,9.521571660137177,1.5813196353897452,-1.7347902414411305
1776820800184820200,4.8968203125,9.534539278259873,1.559491834463179,-1.6825268241100013
1776820800194862000,4.906862060546875,9.546278231370449,1.546016412948817,-1.6275008101977406
1776820800204903200,4.916903076171875,9.556175940528512,1.5402208784125744,-1.5740506673000751
1776820800214945000,4.926945068359375,9.56468424115479,1.538908626770228,-1.5228088481016455
1776820800224987100,4.936987060546875,9.572232756838202,1.5403395363561807,-1.4731111896052955
1776820800235028000,4.947028076171875,9.579180384019017,1.540673006094247,-1.426872147130221
1776820800245070300,4.9570703125,9.586914777663349,1.5323144892022014,-1.383266521898657
1776820800255112200,4.9671123046875,9.596309213474392,1.5136128574721515,-1.3379891640625894
1776820800265154000,4.977154052734375,9.6073549236238,1.4878123535223304,-1.2866796864554286
1776820800275195100,4.987195068359375,9.619276832085847,1.4594186182089148,-1.2288028131566942
1776820800285237000,4.997237060546875,9.63089128203392,1.4341824701435864,-1.1659624722316861
1776820800295279000,5.007279052734375,9.641381111866234,1.4157871278837322,-1.0998545078128577
1776820800305321200,5.0173212890625,9.650354691916704,1.4049571063116193,-1.0329976977881044
1776820800315362300,5.0273623046875,9.65808265582025,1.3985032539971172,-0.9675029698967933
1776820800325404200,5.037404052734375,9.665097503018378,1.3933837190262972,-0.9026539194978773
1776820800335446000,5.047446044921875,9.671424367952346,1.3880192693836986,-0.8410255116458982
1776820800345487000,5.057487060546875,9.677876320570707,1.3770381489031016,-0.7828310237653553
1776820800355529000,5.067529052734375,9.68492097838521,1.3586369614243508,-0.72584868815355
1776820800365571000,5.077571044921875,9.6922666649729,1.335947429101914,-0.6675268475662917
1776820800375613200,5.08761328125,9.700068863156437,1.3096484741106629,-0.6032359790394082
1776820800385654300,5.097654296875,9.707959324145316,1.2813539613880216,-0.5329809779437259
1776820800395696000,5.107696044921875,9.71502093309462,1.2565373539090157,-0.45813682242687787
1776820800405738200,5.11773828125,9.720376907169818,1.2402874992452562,-0.3825378299547359
1776820800415780000,5.127780029296875,9.724183898237348,1.2309408480986952,-0.30886279128249733
1776820800425821200,5.1378212890625,9.727007138964533,1.2243428380731491,-0.2381841579472646
1776820800435863000,5.147863037109375,9.729432320284843,1.2168404996190219,-0.16683133341120554
1776820800445905200,5.1579052734375,9.731403328096865,1.2090762222930789,-0.09122788395965471
1776820800455947300,5.167947265625,9.732502813771367,1.203569587700814,-0.014676915391767397
1776820800465988000,5.177988037109375,9.732969262239337,1.1982583295501767,0.062343625182937824
1776820800476030200,5.1880302734375,9.732784553322196,1.1934028523430227,0.13807381541985086
1776820800486072000,5.198072021484375,9.731932320407033,1.1901286529779433,0.20866773874685168
1776820800496114000,5.208114013671875,9.730583828407525,1.1880034044522791,0.27350873370347545
1776820800506155000,5.218155029296875,9.728712189316749,1.1880719396438448,0.3331550095612183
1776820800516197000,5.228197021484375,9.726092946729063,1.1916833350740372,0.3916005861259997
1776820800526239200,5.2382392578125,9.722189509549736,1.202412380489707,0.45120399095639585
1776820800536281000,5.248281005859375,9.716971482640504,1.2212990864630788,0.5091824614660814
1776820800546322200,5.258322265625,9.710963766658306,1.2454112719997763,0.5625792302086949
1776820800556364000,5.268364013671875,9.70435516217351,1.2736540545351802,0.6112864894282073
1776820800566406000,5.278406005859375,9.697186001196503,1.305278588463366,0.6566687689434737
1776820800576448300,5.2884482421875,9.689661450910569,1.3406919932805001,0.6952488941632211
1776820800586489000,5.298489013671875,9.681932317963241,1.3792983489200472,0.7266906188704073
1776820800596531200,5.30853125,9.674020814186335,1.420437291777134,0.7523959188174456
1776820800606573000,5.318572998046875,9.665885438525676,1.463328338998556,0.7744181463375687
1776820800616615200,5.328615234375,9.657568861079216,1.5074277390964328,0.7933543905410915
1776820800626656000,5.338656005859375,9.64911082933545,1.5520251518443227,0.810116140249744
1776820800636698000,5.348697998046875,9.640695467689632,1.595915146975219,0.8249000140141696
1776820800646740200,5.358740234375,9.63234615701735,1.63920016195029,0.8374342091556638
1776820800656782000,5.368781982421875,9.62391442875862,1.6823026599653064,0.8488354547444731
1776820800666823200,5.3788232421875,9.615247722700238,1.7268040649928151,0.857637989076972
1776820800676865000,5.388864990234375,9.606886721590161,1.770758649792522,0.8616936211433261
1776820800686907100,5.3989072265625,9.599560908746719,1.8102382811352609,0.8613297562669963
1776820800696949000,5.408948974609375,9.593204233196378,1.845318654605746,0.8576732065208256
1776820800706990000,5.418989990234375,9.587220482611656,1.8780771609999238,0.8534986242499202
1776820800717032200,5.4290322265625,9.581242577245831,1.909650549262762,0.8505234808966516
1776820800727074000,5.439073974609375,9.575307341977954,1.9405901696667074,0.8473445585995912
1776820800737116200,5.4491162109375,9.569678396180272,1.9695012068524955,0.8441844871334732
1776820800747157000,5.459156982421875,9.564695347070693,1.9958608059898018,0.8387480682332068
1776820800757199000,5.46919921875,9.560675590035318,2.0187518522337076,0.8297603865921497
1776820800767241000,5.479240966796875,9.55755716575384,2.0387891164816914,0.8165819021977484
1776820800777283000,5.489282958984375,9.555095159554481,2.057552269140631,0.7981616446923464
1776820800787324200,5.49932421875,9.552791558787225,2.0765014458909627,0.7763525484662502
1776820800797366000,5.509365966796875,9.550203295859694,2.096721080968529,0.753488463294506
1776820800807408000,5.519408203125,9.547161443945765,2.1182278332471847,0.7315940268725156
1776820800817450000,5.529449951171875,9.543576571196317,2.141341143939644,0.7107611552674323
1776820800827491000,5.539490966796875,9.539647999575733,2.165426076143235,0.690208342712745
1776820800837533000,5.549532958984375,9.535479189458488,2.1897774041980504,0.6707345575664192
1776820800847575300,5.5595751953125,9.531313886472581,2.2130650485441086,0.6532602756742387
1776820800857617200,5.5696171875,9.527658286574482,2.23336344794631,0.6373158336978405
1776820800867659000,5.579658935546875,9.524557397949694,2.251002126619965,0.6214187379945069
1776820800877700000,5.5897001953125,9.521911851876974,2.2669449611611663,0.6038006637174635
1776820800887742000,5.599741943359375,9.51979237550497,2.2812390055820346,0.5830203260172158
1776820800897784000,5.6097841796875,9.518139347600936,2.294151678647101,0.5588184894356877
1776820800907826200,5.619826171875,9.516787348470091,2.30587879518941,0.532948098587431
1776820800917867300,5.6298671875,9.515582648855448,2.3166047718651592,0.5073305865217
1776820800927909000,5.6399091796875,9.514260460340976,2.3267906503148374,0.4850202993078157
1776820800937951000,5.649950927734375,9.51341173455715,2.3338100275576115,0.4676450208107009
1776820800947993000,5.6599931640625,9.513505842581392,2.335672460428625,0.45629148682113735
1776820800958034000,5.670033935546875,9.5141400488317,2.334056257403642,0.4513568434305489
1776820800968076000,5.680075927734375,9.515003387662768,2.3301953441917895,0.45312359737474467
1776820800978118100,5.6901181640625,9.515472174218296,2.3268986407339574,0.46017125086393207
1776820800988160300,5.70016015625,9.515285127213597,2.325882449428737,0.4690395439090207
1776820800998202000,5.7102021484375,9.51477308603823,2.32648728345409,0.47640788071993734
1776820801008243200,5.7202431640625,9.514109069171548,2.3278778610296547,0.4827937823647633
1776820801018285000,5.73028515625,9.513584168514608,2.328897267205268,0.48815099854897703
1776820801028327200,5.7403271484375,9.513620993393658,2.3277131719872353,0.4931017893567681
1776820801038369300,5.750369384765625,9.514041264632343,2.325007420159876,0.4977793892463669
1776820801048410000,5.76041015625,9.514377949240803,2.3226959283471107,0.5020712412213907
1776820801058452200,5.7704521484375,9.514472057265042,2.32150832599774,0.5058003812797367
1776820801068494000,5.780494140625,9.514332356533407,2.321492105515301,0.5084654357705265
1776820801078536000,5.790535888671875,9.514169274926186,2.3218213374696672,0.5100141630498692
1776820801088577000,5.800576904296875,9.514151739269494,2.3217276678368446,0.5107567250454798
1776820801098618000,5.8106181640625,9.5141797963202,2.3217393582746384,0.5101996026193722
1776820801108660200,5.82066015625,9.514100885865092,2.3223614356957376,0.5088339768219738
1776820801118702000,5.8307021484375,9.513986904096603,2.323216883481294,0.5070681727258488
1776820801128744200,5.840744140625,9.51352396275997,2.3255720683053136,0.5049466505272313
1776820801138785000,5.850784912109375,9.512829550755024,2.3287886922642587,0.5032220186917111
1776820801148827100,5.8608271484375,9.51218190050125,2.331877452059835,0.5011048804072663
1776820801158869000,5.870868896484375,9.51179143987894,2.334024108699709,0.49848001179639245
1776820801168911000,5.8809111328125,9.511728896036743,2.3348729806140063,0.49579245321284976
1776820801178953200,5.890953125,9.512007128456235,2.3340911825865507,0.4940617204301059
1776820801188994000,5.900994140625,9.512461301964521,2.332521741312742,0.4927501994401216
1776820801199036200,5.9110361328125,9.51291079929769,2.3310170358382165,0.49112628803271796
1776820801209078000,5.921078125,9.513194876936078,2.330316486353427,0.48905171024836597
1776820801219120000,5.9311201171875,9.513180848410725,2.330989563309401,0.4860793799066916
1776820801229162200,5.941162353515625,9.513273202869296,2.3314462210357187,0.4820397125944495
1776820801239203300,5.951203369140625,9.513818561792373,2.330118479563296,0.4776690232295543
1776820801249245200,5.9612451171875,9.514745028987527,2.3270253358535467,0.47433673700168727
1776820801259287000,5.971287109375,9.51566974261701,2.3237181110017002,0.4719801639381796
1776820801269329200,5.9813291015625,9.51637935219109,2.320990147342533,0.4710805482173338
1776820801279370000,5.991369873046875,9.516955106252432,2.318587177854031,0.4713477477861568
1776820801289412000,6.001412109375,9.517315756258368,2.316910038422048,0.47227070784997194
1776820801299454200,6.0114541015625,9.517467147427796,2.316243537337333,0.47252154080588366
1776820801309496000,6.02149609375,9.517577037543058,2.3161107047379015,0.47094775215052065
1776820801319538200,6.0315380859375,9.517765253591538,2.3158608216300607,0.46831345812417563
1776820801329579000,6.0415791015625,9.51796282199025,2.315457939917594,0.4662881628416478
1776820801339621000,6.05162109375,9.518060437145829,2.3154176079072055,0.46454318233784286
1776820801349663000,6.0616630859375,9.518167404651642,2.3153496572375296,0.4626882021209225
1776820801359705000,6.071705078125,9.518723869490623,2.313640807493031,0.4596948289912194
1776820801369747200,6.081747314453125,9.519898758488893,2.3094262585379184,0.4565716189367696
1776820801379788300,6.091788330078125,9.521324991899728,2.3041006796009835,0.45370983629748224
1776820801389830100,6.101830078125,9.522958730581403,2.2979385037094353,0.45071646316777914
1776820801399872000,6.1118720703125,9.524792960271238,2.291065987591445,0.44691590184103697
1776820801409914000,6.1219140625,9.52661900665462,2.284127566630393,0.44348709643613543
1776820801419956200,6.131956298828125,9.528429855468868,2.277000491229445,0.4412609448192641
1776820801429997300,6.141997314453125,9.53032896708846,2.2692565991044042,0.44005920434668655
1776820801440039200,6.1520390625,9.53204336979091,2.262067856644094,0.4399756907816976
1776820801450081000,6.1620810546875,9.534019638299942,2.2537454339787364,0.4398356977891177
1776820801460123100,6.172123046875,9.536304534366726,2.2440771496623753,0.4397986171817407
1776820801470165000,6.1821650390625,9.538326395583152,2.2354029909498987,0.44010512584764505
1776820801480207000,6.19220703125,9.539586040255427,2.2299838885106147,0.44036903748083855
1776820801490248200,6.202248291015625,9.540387419766187,2.2265078829631206,0.44054552655890583
1776820801500290000,6.2122900390625,9.540915243032574,2.22427150221318,0.4404110134590417
1776820801510332200,6.222332275390625,9.540934532254933,2.2242814390853045,0.4399081419708207
1776820801520374000,6.2323740234375,9.540573882248998,2.2257478583760557,0.4402725913690403
1776820801530416000,6.242416015625,9.540219077461957,2.2270463737539945,0.4413839136118069
1776820801540457000,6.25245703125,9.539978838965297,2.22757288184613,0.44396574679855255
1776820801550499300,6.262499267578125,9.539867779806256,2.2273988404534757,0.4471902983356267
1776820801560541200,6.272541259765625,9.540074116033315,2.225970122824609,0.4498856383668259
1776820801570583000,6.2825830078125,9.540514845538139,2.2235300361961126,0.45258335301820185
1776820801580625200,6.292625244140625,9.540693124714494,2.222321975580603,0.4547649713736027
1776820801590666000,6.302666015625,9.54055225493908,2.222640247749537,0.4562042469291016
1776820801600708000,6.3127080078125,9.540283374869823,2.2236055856503545,0.45708658272158353
1776820801610750200,6.322750244140625,9.540023847150803,2.224671461316198,0.4573139982692897
1776820801620792000,6.3327919921875,9.539759643256664,2.2255917910315097,0.45842480905540284
1776820801630834200,6.342834228515625,9.539384380203485,2.226628294472396,0.46118404463566837
1776820801640875000,6.352875,9.539235911643505,2.226352692401409,0.465559738969244
1776820801650917000,6.362917236328125,9.539424127691984,2.224624261173606,0.4699296611491591
1776820801660959000,6.372958984375,9.540146596747636,2.2207782532699403,0.47341589582972227
1776820801671001000,6.3830009765625,9.541284076344967,2.2155641718834636,0.4749856293644756
1776820801681043200,6.393043212890625,9.54237888584435,2.2107813215211034,0.47522046103365717
1776820801691085000,6.4030849609375,9.543129996472597,2.2076047373116015,0.4748900235028937
1776820801701126100,6.413126220703125,9.543379002797604,2.2064389084026215,0.47538445595633233
1776820801711168000,6.42316796875,9.543058684802055,2.2075524226024745,0.47662269251439715
1776820801721210000,6.433210205078125,9.54273135254383,2.208811336622387,0.47731118623521174
1776820801731252200,6.443252197265625,9.542982112434506,2.2078123887129126,0.47690373794548213
1776820801741294000,6.453294189453125,9.54377472411692,2.2047347348332402,0.4752828222127631
1776820801751335200,6.463335205078125,9.544819849255681,2.2006496574766934,0.47325036653708663
1776820801761377000,6.473376953125,9.545854453000425,2.1965574197269975,0.47135815958231686
1776820801771419100,6.483419189453125,9.54676046192944,2.1928331385068596,0.47037108477372674
1776820801781461000,6.4934609375,9.547400513398646,2.1899080448403954,0.4710225344197824
1776820801791503000,6.503503173828125,9.547563595005869,2.1888874696210023,0.4724529325490817
1776820801801545200,6.513545166015625,9.547536122477053,2.188724095752835,0.4737677049420774
1776820801811586000,6.5235859375,9.547373625391721,2.1893412047378717,0.4741845421146601
1776820801821628200,6.533628173828125,9.547081364446878,2.1908688526965676,0.4730502773877233
1776820801831670000,6.543669921875,9.546697918087244,2.1931014340542254,0.4703545720303431
1776820801841711900,6.5537119140625,9.546354219216107,2.195380338771641,0.4667111740266904
1776820801851754200,6.563754150390625,9.54608767723441,2.197399423509091,0.46267198163848366
1776820801861796000,6.573796142578125,9.545900045707821,2.199166140920669,0.4580760321503505
1776820801871837200,6.583837158203125,9.545895954054593,2.2002314320646223,0.4530363940153271
1776820801881879000,6.593879150390625,9.545929271802306,2.2010151297882197,0.4485331277793273
1776820801891921200,6.603921142578125,9.545804768639803,2.2022148609668015,0.44530185424052177
1776820801901963000,6.613962890625,9.54545230194032,2.2040214719973505,0.44382389064244926
1776820801912005000,6.624005126953125,9.544920387020706,2.206312651674449,0.44395033003371204
1776820801922047200,6.634047119140625,9.544273905810714,2.209050552205741,0.4442538795575499
1776820801932088000,6.644088134765625,9.54347778699696,2.2125176437944174,0.44405678608287125
1776820801942130200,6.654130126953125,9.542683421748876,2.216260483584553,0.44247901537213474
1776820801952172000,6.664172119140625,9.541996024006604,2.2197804744042453,0.4396611084071919
1776820801962214000,6.6742138671875,9.541617838343978,2.2219036040380598,0.4371485410643741
1776820801972256300,6.68425634765625,9.541447742474078,2.22283956971392,0.43606655451394616
1776820801982298000,6.694298095703125,9.541379353412985,2.2230638799890876,0.43642523175850506
1776820801992339200,6.704339111328125,9.541432544904946,2.2225682054266334,0.4378180012911558
1776820802002381000,6.714381103515625,9.541368247497081,2.222563967642933,0.43923937586378303
1776820802012423000,6.7244228515625,9.540973110699653,2.224081678729504,0.4401292373755947
1776820802022465000,6.734465087890625,9.540333643752335,2.226878762102127,0.4397825062971562
1776820802032507100,6.744507080078125,9.53950303814709,2.2308087950274347,0.4379415546055883
1776820802042549200,6.75454931640625,9.538598782783746,2.235172250933945,0.4353978614721447
1776820802052590000,6.764590087890625,9.537724922558665,2.239444667556137,0.43249300687611103
1776820802062632200,6.774632080078125,9.53711818883717,2.2425214446529744,0.4299561818748712
1776820802072674000,6.784674072265625,9.536960952448844,2.2434889745108784,0.4283548841580748
1776820802082716700,6.794716552734375,9.537243861043452,2.242382328443229,0.4278463501140475
1776820802092758500,6.804758544921875,9.537499881631135,2.2411174230739475,0.42887156497593965
1776820802102800600,6.814800537109375,9.53741746404469,2.241116254030168,0.4306879302155226
1776820802112841700,6.824841796875,9.536721298474072,2.2438062237665055,0.43202487790770827
1776820802122883600,6.834883544921875,9.535856206077337,2.247488273280114,0.4320168772643432
1776820802132925400,6.844925537109375,9.534776009625196,2.2522741923823952,0.4308999289983883
1776820802142967800,6.8549677734375,9.53368879891038,2.2574933883354067,0.4276553575865924
1776820802153009700,6.865009765625,9.532859362348914,2.2617392092116178,0.42365258821863677
1776820802163051500,6.875051513671875,9.533030042740702,2.2613627771146594,0.4218820714147761
1776820802173092600,6.885092529296875,9.534522911646961,2.2542982455559075,0.425899490362592
1776820802183134500,6.895134521484375,9.536460017189382,2.2446036577545105,0.43367655410487205
1776820802193176600,6.905176513671875,9.537816107973455,2.2374022019430995,0.4410336023367941
1776820802203218700,6.91521875,9.53827671122253,2.234777114136517,0.4442867954464629
1776820802213260500,6.925260498046875,9.538418165519833,2.234569316604733,0.4423579828083515
1776820802223302700,6.935302734375,9.538326395583152,2.2360877583436665,0.4366450485216453
1776820802233344500,6.945344482421875,9.538118305790423,2.2385144009687004,0.4287009211167693
1776820802243385600,6.955385498046875,9.537879820859432,2.2410439194463194,0.4206973916748538
1776820802253427500,6.965427490234375,9.537802663969993,2.2422701002404093,0.4158802737167105
1776820802263469800,6.9754697265625,9.537574700433016,2.243372800785303,0.41518684809245165
1776820802273511700,6.98551171875,9.536799039885402,2.2462447029598054,0.41744262766260654
1776820802283553500,6.995553466796875,9.535783140841126,2.2500299205869436,0.4202697408473119
1776820802293595600,7.005595703125,9.535057164654136,2.2525603158473966,0.423160530385375
1776820802303637500,7.015637451171875,9.534659689769148,2.2536619934789837,0.4261653382245451
1776820802313678600,7.0256787109375,9.534449846410752,2.254259228719771,0.4277340123133734
1776820802323720700,7.035720703125,9.534577856704592,2.253943294638395,0.42652945882920174
1776820802333762600,7.045762451171875,9.534892329481243,2.253441044204682,0.4221944983648136
1776820802343804700,7.0558046875,9.535313769763707,2.252806253432482,0.4159944381482899
1776820802353846500,7.065846435546875,9.53605728160739,2.2509639865666626,0.4088791993156075
1776820802363888400,7.075888427734375,9.537090131786465,2.2475283130295574,0.40372174348719414
1776820802373930800,7.0859306640625,9.538473110577463,2.2418425224781036,0.4026460405470803
1776820802383971600,7.0959716796875,9.539864857196807,2.2353609053738412,0.40556134347189216
1776820802394013700,7.106013671875,9.54140624141991,2.2277977766431865,0.41084779597483573
1776820802404055600,7.1160556640625,9.542852348574996,2.2205388915561137,0.4166102319590747
1776820802414097700,7.12609765625,9.544045357751846,2.214792018467188,0.4198572145236656
1776820802424139500,7.136139404296875,9.545312601208686,2.2091472905784846,0.4208248539794236
1776820802434181600,7.146181640625,9.54660848623812,2.2035474247448144,0.4207644290290773
1776820802444223700,7.1562236328125,9.547445521584153,2.200017789313942,0.4202238924115896
1776820802454264600,7.1662646484375,9.548170328727364,2.197176574538648,0.41863220277335494
1776820802464306700,7.176306640625,9.549045357996224,2.1938753410361707,0.416036414126493
1776820802474348500,7.1863486328125,9.549618773970007,2.191952994671464,0.4129907628202811
1776820802484390400,7.196390380859375,9.549795299580692,2.191821623376757,0.40955666018575426
1776820802494432800,7.206432861328125,9.549796468624471,2.192527287428081,0.4056349932299927
1776820802504474600,7.216474609375,9.549995206066965,2.1924935312889513,0.4012066919263452
1776820802514516500,7.2265166015625,9.550423660612106,2.1914302859716117,0.39680323280300944
1776820802524557600,7.2365576171875,9.550774958267807,2.1905999726273118,0.39289183151293544
1776820802534599400,7.246599365234375,9.550766190439463,2.191202030173689,0.3897272665347904
1776820802544641500,7.2566416015625,9.550577974390983,2.192522611252963,0.3868502863263711
1776820802554683600,7.26668359375,9.550428921309113,2.1936396325841545,0.3842044845253229
1776820802564725800,7.276725830078125,9.550539395946263,2.1936009080089627,0.38174492601137605
1776820802574767600,7.286767578125,9.550996492063998,2.191956209541857,0.3796707135532051
1776820802584809500,7.2968095703125,9.551632451879978,2.189516853565723,0.37778888186197723
1776820802594851600,7.3068515625,9.552402851730584,2.1864757323041557,0.3759364589283243
1776820802604892400,7.316892333984375,9.553181434887646,2.1833616919368506,0.3742660780306905
1776820802614934800,7.326934814453125,9.553826747053861,2.180768460573256,0.372858476255089
1776820802624976600,7.3369765625,9.554321252572535,2.17873271696195,0.3721730878068134
1776820802635018500,7.3470185546875,9.55431423830986,2.178733447614312,0.37225568805634973
1776820802645060600,7.357060546875,9.554020808321237,2.1801636265479027,0.37143132952880115
1776820802655102500,7.3671025390625,9.553874677848816,2.1811462078444657,0.36941995317377146
1776820802665144600,7.37714453125,9.553953003782034,2.1812552211768925,0.3667994319444522
1776820802675185700,7.387185546875,9.554037759456039,2.1814574657507237,0.3632989495428279
1776820802685227500,7.3972275390625,9.554265722993016,2.180820190760493,0.3610820406783372
1776820802695269600,7.40726953125,9.55451706740558,2.1796485166326165,0.3615744273051619
1776820802705311500,7.4173115234375,9.554925648206472,2.17734243164733,0.36465284836981443
1776820802715353600,7.427353515625,9.55571241466999,2.1728467276632784,0.37086390490438786
1776820802725395700,7.437395751953125,9.556371755361557,2.1684411861807105,0.3795008734116331
1776820802735437600,7.4474375,9.556239653414487,2.1675172032035888,0.38804552399292586
1776820802745479700,7.457479736328125,9.555539396190643,2.169381243509799,0.3947703022032976
1776820802755521500,7.467521484375,9.553974046570062,2.1757051858343184,0.3978565047156066
1776820802765562600,7.477562744140625,9.551137946361303,2.1889662339456377,0.39316885835602877
1776820802775604700,7.487604736328125,9.548408813658357,2.202974301031977,0.38110951418466865
1776820802785646600,7.497646484375,9.546739419141412,2.2128822393231093,0.36519619799889624
1776820802795688700,7.507688720703125,9.546384614354372,2.2166630730360746,0.3512235675521195
1776820802805730600,7.51773046875,9.54722924848497,2.214182946658134,0.34379875131361187
1776820802815772400,7.5277724609375,9.548426933836936,2.208791316747665,0.3451972929999232
1776820802825814800,7.537814697265625,9.549220130041242,2.2039909307286143,0.35386009006816893
1776820802835856600,7.547856689453125,9.549234743088483,2.202006332782656,0.3655850877186283
1776820802845897700,7.557897705078125,9.548602290403842,2.2030501427471636,0.37566432745605705
1776820802855939600,7.567939697265625,9.547732521831989,2.2060104538574814,0.38043724094629283
1776820802865981700,7.577981689453125,9.546756954798102,2.2101684503197667,0.3807278944559395
1776820802876023600,7.5880234375,9.545932194411755,2.214340621437877,0.3772308826530352
1776820802886065700,7.598065673828125,9.545498479169607,2.2172028790012,0.37127767333704975
1776820802896107800,7.608107666015625,9.545515430304407,2.2180635874837638,0.3656680532943457
1776820802906149600,7.618149658203125,9.54584626969397,2.2171863662578164,0.3623425621334463
1776820802916191500,7.62819140625,9.54635071208477,2.2150112141758203,0.3624038273340091
1776820802926233600,7.638233642578125,9.546972643375396,2.2118841681964696,0.36501550766974683
1776820802936274400,7.6482744140625,9.547236262747646,2.210083840776235,0.3690663904957473
1776820802946316800,7.65831689453125,9.547428570449352,2.208642263665795,0.3726754478383809
1776820802956358700,7.668358642578125,9.547866377344727,2.206293800843507,0.3753961780391633
1776820802966400500,7.678400390625,9.548117137235403,2.204837172294408,0.37758345895037054
1776820802976442600,7.688442626953125,9.547873391607403,2.205632852716744,0.37911735398676244
1776820802986484500,7.698484375,9.547613863888383,2.20673993717581,0.3792045573461801
1776820802996526600,7.708526611328125,9.547344983819126,2.2082101558588443,0.3772949973978102
1776820803006568700,7.718568603515625,9.54722632587552,2.209274570219964,0.37406306627187874
1776820803016610600,7.728610595703125,9.547452535846828,2.2088582445040346,0.3708302948957309
1776820803026652700,7.738652587890625,9.547537876042723,2.208827264843881,0.36871319314390416
1776820803036693500,7.748693603515625,9.547426816883682,2.2095245994582773,0.36747444512918587
1776820803046735600,7.758735595703125,9.547417464533448,2.2096679534517225,0.3669034403081983
1776820803056777700,7.76877783203125,9.547574116399884,2.209073348559439,0.3663677625289187
1776820803066819600,7.778819580078125,9.547994387638568,2.2074435554005203,0.36518311932161446
1776820803076861700,7.78886181640625,9.548740822091698,2.2045115936018527,0.36335341967642304
1776820803086902500,7.798902587890625,9.54963163345158,2.2008168307371436,0.3623682810965925
1776820803096945000,7.80894482421875,9.550203295859694,2.198396763983369,0.36198406755197793
1776820803106986800,7.81898681640625,9.550539980468153,2.1969906965777275,0.36170090322904286
1776820803117028600,7.829028564453125,9.55071182990372,2.1962141592472793,0.3617738588673994
1776820803127070700,7.83907080078125,9.550437689137459,2.1972546082109212,0.36274394600857046
1776820803137111600,7.849111572265625,9.549968902581929,2.199151381742954,0.36360169534906744
1776820803147153700,7.859153564453125,9.549672549983859,2.200294414298236,0.36446518031060693
1776820803157195800,7.86919580078125,9.549527004033326,2.2008451800487934,0.36489268500767646
1776820803167237600,7.879237548828125,9.549644492933153,2.200434553421289,0.3644649245822802
1776820803177279700,7.88927978515625,9.549850244638323,2.1995716529816387,0.3642105844950303
1776820803187321600,7.899321533203125,9.54995078240335,2.198961119867861,0.365262322037667
1776820803197363700,7.90936376953125,9.54989466830194,2.198865404408425,0.3673173183387145
1776820803207405800,7.91940576171875,9.549806405496597,2.1988829400651158,0.36944998298585413
1776820803217447700,7.92944775390625,9.549927401527762,2.1981499496154484,0.37066545972283926
1776820803227489800,7.93948974609375,9.54993266222477,2.1982265219829977,0.3701169224619865
1776820803237530600,7.949530517578125,9.549764904442428,2.1993490962721407,0.367780844197236
1776820803247572700,7.95957275390625,9.549698853468895,2.2002850619480014,0.3638606385461986
1776820803257614800,7.96961474609375,9.549712881994246,2.2010719745419918,0.3587475333161652
1776820803267656700,7.97965673828125,9.549680148768424,2.202032782398164,0.35361459087450053
1776820803277698800,7.98969873046875,9.549657936936617,2.2027153578348457,0.3498908941762522
1776820803287740700,7.99974072265625,9.54968891659677,2.202784477548301,0.34859566673394293
1776820803297782800,8.00978271484375,9.54979997575581,2.2022572388038038,0.34888401868864893
1776820803307825000,8.019824951171875,9.550231937432288,2.2003521358348426,0.3491161104114726
1776820803317866800,8.02986669921875,9.551128594011068,2.1965100734539327,0.34875188020896164
1776820803327908900,8.039908935546874,9.552479424098134,2.1908004636354743,0.34781379564125087
1776820803337950700,8.04995068359375,9.553873508805037,2.1849004458114503,0.34663236730434
1776820803347991800,8.05999169921875,9.555068271547555,2.180034885601699,0.3442096336694434
1776820803358033700,8.07003369140625,9.556102290770411,2.1760323719620702,0.34087110036388035
1776820803368075800,8.08007568359375,9.556838788351415,2.1732307585448027,0.3381123031750321
1776820803378118000,8.090117919921875,9.557596913242339,2.1699944069720805,0.33737653624638914
1776820803388159700,8.10015966796875,9.557942365679144,2.1682862878799436,0.33860450713876633
1776820803398201600,8.11020166015625,9.557759994849562,2.1688025668390094,0.3404498427445069
1776820803408243700,8.12024365234375,9.557022912746667,2.1719076932474968,0.3413304980365559
1776820803418285800,8.130285888671875,9.555978372129797,2.1765512812696395,0.3410046270830557
1776820803428327700,8.14032763671875,9.55483446279168,2.182047686728835,0.3379332202810794
1776820803438369800,8.150369873046875,9.554121930608153,2.1858688524521885,0.33332291347403076
1776820803448411600,8.16041162109375,9.553642622658609,2.1886427010796963,0.32885961392223834
1776820803458452700,8.17045263671875,9.55330710709393,2.1905447353087366,0.3259630522305146
1776820803468494600,8.18049462890625,9.553283141696452,2.190759254842251,0.3252299156503752
1776820803478537000,8.190536865234375,9.553540915849805,2.189335359518975,0.32723146473113446
1776820803488578800,8.200578857421876,9.553880523067713,2.187193817445636,0.3315660598693415
1776820803498620700,8.21062060546875,9.554246433770656,2.1847030235432086,0.33736437088456
1776820803508662800,8.220662841796875,9.554525835233926,2.182575509995222,0.3431942095492035
1776820803518704600,8.23070458984375,9.554569674375653,2.18181928480044,0.3467896767579019
1776820803528746800,8.240746826171875,9.554483165135979,2.182100732090324,0.3473763540720567
1776820803538788900,8.250788818359375,9.554792961737514,2.1809891175866127,0.34587267151083795
1776820803548830700,8.260830810546874,9.555350011098385,2.178907635137439,0.3435424384649843
1776820803558872600,8.27087255859375,9.55599181613326,2.1763344236485658,0.3419542194254696
1776820803568914700,8.280914794921875,9.556405657631158,2.174677157960832,0.3409522393086925
1776820803578955800,8.290955810546874,9.5563466209203,2.1750367850534618,0.34036512360312043
1776820803588998000,8.300997802734376,9.555838671398162,2.1773948924869297,0.33947573701534417
1776820803599039700,8.311039794921875,9.555231353154777,2.1803389831148086,0.33772955093514173
1776820803609081900,8.321081787109375,9.554870703148842,2.1822287423841655,0.33573684274796395
1776820803619123700,8.331123779296876,9.55509574407637,2.181593659351021,0.3334536271816119
1776820803629165600,8.34116552734375,9.555783726340533,2.1789349615357816,0.3310976386399939
1776820803639208000,8.3512080078125,9.556429038506746,2.1764517664179204,0.32881175619252023
1776820803649249800,8.361249755859374,9.556819499129057,2.1750718563668427,0.3266223198568448
1776820803659291600,8.371291748046875,9.556972059342264,2.1746979084879157,0.324535320982337
1776820803669333800,8.381333740234375,9.55714683138728,2.1741686239168048,0.3229912698781118
1776820803679375600,8.391375732421874,9.55729939160049,2.173630863778293,0.322078137088567
1776820803689417700,8.401417724609376,9.557158521825075,2.1744036017164587,0.32111294531822204
1776820803699458800,8.411458740234375,9.556877951318025,2.1757893569864333,0.3200332603227347
1776820803709500700,8.421500732421874,9.556883796536923,2.175989701864123,0.31845267660040405
1776820803719542800,8.431542724609375,9.557287701162695,2.1745064775690435,0.31645474424883724
1776820803729584600,8.441584716796875,9.557980359601974,2.1717596630789338,0.31434940600004047
1776820803739626800,8.451626708984374,9.558684708479046,2.1690493812069294,0.31182390611041333
1776820803749668900,8.4616689453125,9.559120177286863,2.167645505758375,0.30817572233378887
1776820803759710700,8.471710693359375,9.558956511157751,2.168877970162779,0.30439421276738865
1776820803769752800,8.4817529296875,9.558799274769425,2.169716759074479,0.30349094378473235
1776820803779794700,8.491794677734376,9.559206102004646,2.167354121596366,0.30753103122208264
1776820803789836500,8.50183642578125,9.559652676728367,2.1644420335419476,0.31399208046235144
1776820803799879000,8.51187890625,9.559531096175313,2.1644152916654944,0.3179384434679523
1776820803809920800,8.521920654296874,9.558985152730346,2.1669130998305977,0.31735165655594316
1776820803819962600,8.531962646484375,9.558055178403853,2.1716968269757926,0.31252193484455343
1776820803830003700,8.542003662109375,9.557356674745678,2.175779273983836,0.3054014353148639
1776820803840045600,8.552045654296874,9.557198269313574,2.1775478910915553,0.29767347141131756
1776820803850087700,8.562087646484375,9.557739536583423,2.176067589405924,0.2911115008135326
1776820803860129800,8.5721298828125,9.558971124204993,2.171223656506091,0.2868542086952366
1776820803870172000,8.582171875,9.560701308998466,2.1637182493120433,0.28590797735368834
1776820803880213800,8.5922138671875,9.562381809431313,2.155970996186137,0.2882514352072961
1776820803890255600,8.602255615234375,9.563688215854764,2.1495358485721052,0.29280604803804305
1776820803900297700,8.612297607421874,9.564445756223797,2.1454534015640614,0.29794611434023827
1776820803910339800,8.62233984375,9.56490811303854,2.14285432498157,0.30173461990300565
1776820803920381700,8.632381591796875,9.56513023135662,2.1416262444913388,0.3034581374936737
1776820803930423800,8.642423828125,9.565096913608908,2.1418698439888657,0.3027388650421053
1776820803940465700,8.652465576171876,9.564835047802328,2.1433640280693766,0.3004546265624463
1776820803950507500,8.662507568359375,9.564474397796392,2.1453712762385604,0.2975506670155562
1776820803960550000,8.6725498046875,9.564335281586647,2.1462965743899343,0.2953811957556754
1776820803970590700,8.6825908203125,9.564427051523328,2.145923211032897,0.29522213273644443
1776820803980632800,8.6926328125,9.564636310359836,2.1446888469323513,0.2973193607440218
1776820803990674700,8.7026748046875,9.564845569196343,2.1433143437087536,0.3005999350509606
1776820804000716800,8.712716796875,9.56479646935761,2.1432076684638854,0.3028528833432123
1776820804010758700,8.722758544921875,9.564400163516401,2.144965325786173,0.30288154318211596
1776820804020800800,8.73280078125,9.563923778176306,2.1474214867666364,0.3005459033087827
1776820804030843000,8.7428427734375,9.563502337893842,2.149729471448064,0.29732683166442436
1776820804040884700,8.752884765625,9.563222936430574,2.151348743212968,0.29477433417001736
1776820804050926600,8.762926513671875,9.562952887317538,2.1527174012176693,0.29357029214249925
1776820804060968700,8.77296875,9.562713233342766,2.153747474917769,0.2937902002371848
1776820804071010800,8.7830107421875,9.562545475560427,2.154312269193679,0.2951346005834639
1776820804081052700,8.793052734375,9.562469487714766,2.154430781006813,0.29673748746914785
1776820804091095000,8.803094970703125,9.56239057725966,2.1546876783773303,0.29737562097590414
1776820804101137000,8.813136962890624,9.56235082977116,2.154918126132339,0.29688601082805544
1776820804111179000,8.823178955078125,9.562385901084541,2.154929524309188,0.2957873654037714
1776820804121221000,8.83322119140625,9.562554243388771,2.154286257969588,0.29489728469625115
1776820804131262000,8.843261962890624,9.562673485854267,2.1538158639788625,0.2944926494181156
1776820804141304000,8.853303955078125,9.562720832127333,2.1535528291285035,0.29489684630483387
1776820804151346000,8.863345947265625,9.56287456138432,2.152775268884748,0.2956098716787062
1776820804161388000,8.873387939453124,9.563183188942075,2.1513224397279322,0.2962237292607315
1776820804171430100,8.88343017578125,9.563488309368491,2.1499647415086627,0.2961478144803084
1776820804181472000,8.893471923828125,9.563796936926245,2.1488303306512533,0.2944766663976945
1776820804191514000,8.90351416015625,9.56406757056117,2.1480071777001024,0.29173690270287916
1776820804201556000,8.913555908203126,9.564263385394215,2.1474930906981227,0.2890450698030181
1776820804211597800,8.923597900390625,9.564283843660354,2.1476450663894413,0.28718309358973054
1776820804221640200,8.93364013671875,9.564052957513928,2.1488161559954286,0.28609721631547436
1776820804231682000,8.94368212890625,9.563663081413507,2.150618529242277,0.2855989662034437
1776820804241724000,8.953723876953125,9.563235211390257,2.1525626490473746,0.28528427423108366
1776820804251766000,8.96376611328125,9.562969253930449,2.1537297931306063,0.2854820983581245
1776820804261807900,8.973807861328124,9.562953471839428,2.1537641337916256,0.28570346775753425
1776820804271850000,8.98385009765625,9.563282557663321,2.152326356073469,0.28556614164607597
1776820804281892000,8.99389208984375,9.563790507185459,2.150205126135796,0.28443494565906
1776820804291933200,9.00393310546875,9.564389057600497,2.1478679153598845,0.28202220369521525
1776820804301975000,9.01397509765625,9.565063595861195,2.1451380520045755,0.2799185642131604
1776820804312017000,9.024016845703125,9.565537643113732,2.1430644606009124,0.27958253719182685
1776820804322059000,9.03405908203125,9.565646364185213,2.1425014198906718,0.28014696614155543
1776820804332101000,9.04410107421875,9.565694879502058,2.1422455454334615,0.28044983981195837
1776820804342143000,9.05414306640625,9.56582230527401,2.141785088314861,0.2796167499886826
1776820804352185000,9.06418505859375,9.56604442359209,2.141127647319436,0.2770627729232423
1776820804362227000,9.07422705078125,9.566279985913633,2.1405670908272265,0.27324288584152234
1776820804372268800,9.084268798828125,9.566445405608414,2.140381212866306,0.26881661209817975
1776820804382311200,9.094311279296875,9.566537760066986,2.140429289791733,0.26506893173614515
1776820804392353000,9.10435302734375,9.566677460798621,2.140206879212707,0.26199569830326364
1776820804402395100,9.11439501953125,9.567009469231962,2.13908766592443,0.25889555859714747
1776820804412437000,9.12443701171875,9.567577039986848,2.136936333109438,0.2557447846823372
1776820804422478800,9.134478759765624,9.568074468114972,2.135060894626379,0.2526467821343802
1776820804432521200,9.144521240234376,9.568606967556477,2.133123204562068,0.24893011796511708
1776820804442563000,9.15456298828125,9.569306055736542,2.130382819812745,0.24537503756573423
1776820804452605000,9.16460498046875,9.56977659585774,2.128637875841558,0.24213837546575814
1776820804462647000,9.17464697265625,9.570900046929717,2.1233456146523357,0.24427067478671668
1776820804472687900,9.18468798828125,9.57262906267941,2.114360928685963,0.25422517389962446
1776820804482730000,9.19472998046875,9.574163432639837,2.1055885702960193,0.268843043447379
1776820804492772000,9.204772216796876,9.574664367899299,2.101601546486467,0.2818563090763986
1776820804502814000,9.21481396484375,9.574625204932689,2.100769771837443,0.28935488467086107
1776820804512856000,9.22485595703125,9.57367126520872,2.105232158073783,0.28848873282819987
1776820804522898000,9.23489794921875,9.571361819222568,2.117564547032863,0.2744379043123685
1776820804532940000,9.24493994140625,9.568661912614106,2.1327907577373084,0.2496265575303696
1776820804542982100,9.254982177734375,9.566692658367753,2.144751098513603,0.22106714679384604
