time,seconds_elapsed,z,y,x
1776820795344801300,0.05680126953125,0.027836101430654524,0.2004075676627457,0.12599406778127886
1776820795354842000,0.066842041015625,0.030804888108372685,0.20059695275500417,0.06422858954616822
1776820795364884200,0.07688427734375,-0.0925040961742401,0.2613493814900517,0.09273402333944104
1776820795374925000,0.086925048828125,-0.11708148806989192,0.14839388730898498,0.11344461113857104
1776820795384966100,0.096966064453125,-0.2708241890609264,0.2094160728961229,0.10695323982527478
1776820795395008000,0.107008056640625,-0.27395722638964654,0.19678513938188552,0.11012314769881777
1776820795405049000,0.117049072265625,-0.20234628064036367,0.1594296605862677,0.06220195168992504
1776820795415090200,0.127090087890625,-0.10790390987992286,0.123696522295475,0.038928281070291997
1776820795425132000,0.137132080078125,-0.0333750308573246,0.06247896026670932,0.14587034191442652
1776820795435173000,0.147173095703125,-0.02071194863915443,0.0445126570738852,0.17674919030815361
1776820795445214000,0.1572138671875,-0.09536007012724876,0.033425445870310065,0.1496056103194598
1776820795455256300,0.16725634765625,-0.12782441588044166,0.02242152903601527,0.14177547381622715
1776820795465297200,0.177297119140625,-0.22588380809426306,0.039161213043332095,0.10708276622276752
1776820795475338200,0.187338134765625,-0.28380758927464483,0.07370777189806103,0.013893187985417898
1776820795485380000,0.197380126953125,-0.21721301038265228,0.07986556387543678,-0.043850686033815145
1776820795495421200,0.207421142578125,-0.14466332247853278,0.04917509592697024,-0.00736072889319621
1776820795505462300,0.217462158203125,-0.1430243230998516,-0.043527737689763306,0.0596584138201084
1776820795515504000,0.227504150390625,-0.11275661060810088,-0.05397358224987983,0.03813684071494499
1776820795525545200,0.237545166015625,-0.047769466912746424,-0.03837283914461732,0.006670586637989618
1776820795535586000,0.2475859375,-0.04801671967208385,-0.006157645846903324,0.027912758279882835
1776820795545628200,0.257628173828125,-0.10198504122495651,-0.03319894363805651,-0.008628072814736515
1776820795555669000,0.2676689453125,-0.07625555668473244,0.00313902867808938,-0.08913927764995024
1776820795565710000,0.2777099609375,-0.06699439186453819,0.038607816944271324,-0.12294787761894985
1776820795575752200,0.287752197265625,-0.12531915506124497,0.017596154706180096,-0.07574569376672152
1776820795585793300,0.297793212890625,-0.06951835738420487,-0.0027808628901839255,-0.021203193621663376
1776820795595834400,0.30783447265625,-0.01512508841753006,-0.010168927314877509,-0.013932579280890058
1776820795605876200,0.317876220703125,0.03532090422809124,-0.018515461508184672,-0.10592221627710387
1776820795615917300,0.327917236328125,0.05043839386105537,0.008218085508048534,-0.14323233982734382
1776820795625958100,0.337958251953125,0.0459539419233799,-0.018307371715456246,-0.0994536139180418
1776820795636000300,0.348000244140625,0.01352817461490631,-0.023275077125430105,-0.01962059147218242
1776820795646041000,0.358041015625,0.04961889417171478,-0.003622282150387764,0.025748004294314886
1776820795656082200,0.368082275390625,0.1421188986927271,-0.009217910200357437,0.013696898228337522
1776820795666124000,0.3781240234375,0.10596271268427371,0.013512830915302037,0.03785800779054407
1776820795676165000,0.3881650390625,0.012673019090294836,0.01668561573252082,0.012835436260525602
1776820795686207000,0.39820703125,-0.11991115853786467,0.025295623167604208,-0.02633274081313284
1776820795696248000,0.408248046875,-0.17296587237715721,0.014746172102540731,-0.026148773964797145
1776820795706289200,0.4182890625,-0.10194295564889908,0.039232086322456595,-0.04549395059566013
1776820795716331300,0.428331298828125,-0.027364976787567136,0.0007081482693552971,-0.10252507551894523
1776820795726372400,0.438372314453125,0.003675473642349243,-0.13074629467651247,-0.07635017616562545
1776820795736413200,0.4484130859375,0.039950317594408986,-0.0754154525987804,-0.09173462790539488
1776820795746455300,0.458455322265625,-0.0164390936255455,-0.0656942690514028,-0.10122344573531299
1776820795756496100,0.46849609375,-0.252529238435626,0.15627674951329826,0.005781976368348114
1776820795766537200,0.478537109375,-0.46618484859764575,0.08000424169376492,0.05356024764205795
1776820795776579000,0.4885791015625,-0.5868681605517864,0.09521671613380313,-0.0021233465462340974
1776820795786620200,0.4986201171875,-0.5675076265215874,0.07228942953273654,-0.16819169851159677
1776820795796661200,0.5086611328125,-0.3408300377011299,0.10533508230522275,-0.3552303189754486
1776820795806703000,0.518703125,-0.06407412050366401,0.18246669117212294,-0.39049741065707055
1776820795816744200,0.528744140625,0.09021744654178619,0.14579510298743842,-0.32850188652575013
1776820795826786000,0.5387861328125,0.04034370082616806,0.12152239312678575,-0.13652280485187657
1776820795836827100,0.5488271484375,-0.08341536531150341,0.1927080992013216,0.04670184224781114
1776820795846868000,0.558867919921875,-0.07663374234735966,0.1842573739811778,0.1757053803436458
1776820795856910300,0.568910400390625,-0.03799275378584861,0.19676701920330522,0.28447799934949725
1776820795866951200,0.578951171875,-0.06943652431964874,0.1530791225157678,0.34592049270793795
1776820795876992300,0.5889921875,-0.05499298842549324,0.1448706816188991,0.3390726361071691
1776820795887034000,0.5990341796875,-0.002011924344301224,0.20896292230114338,0.2128059527964331
1776820795897075200,0.6090751953125,-0.017501754420995712,0.2513856213584542,0.08117384259556419
1776820795907117000,0.619116943359375,-0.07237959203422069,0.21660408470407128,0.015903598509356378
1776820795917158100,0.629158203125,-0.12771686385273934,0.15930559581518172,-0.04710904850894585
1776820795927199200,0.63919921875,-0.12528525279164313,0.1976956783555448,-0.10595804564231075
1776820795937241000,0.649240966796875,-0.04863514383137226,0.17592589122653007,-0.1515389256027527
1776820795947282200,0.6592822265625,-0.008643909704685211,0.16148425502851604,-0.09885814137607812
1776820795957323000,0.669322998046875,0.01836100159883499,0.13032953056916594,-0.014940954889124258
1776820795967365400,0.679365478515625,0.078091539940238,0.17871742164120077,0.04405133230560459
1776820795977406200,0.68940625,0.02493453477025032,0.09871814838349818,0.1737210929249413
1776820795987448300,0.6994482421875,0.026722587230801582,-0.01095364795178175,0.30459262141631915
1776820795997489200,0.7094892578125,-0.02546995682120323,-0.00817249280065298,0.25897715419968587
1776820796007530200,0.7195302734375,-0.0582581277012825,0.026190233919769525,0.1966786285337992
1776820796017572000,0.729572021484375,-0.12831190713644028,-0.017684855902940035,0.1250700208720751
1776820796027613200,0.73961328125,-0.22656302253007887,-0.016657704812288284,0.08579844278944655
1776820796037654300,0.749654296875,-0.2795698055744171,0.09201952752768992,-0.06388442488415166
1776820796047696100,0.759696044921875,-0.32464111944437024,0.12001491117328404,-0.18024011943014337
1776820796057737200,0.7697373046875,-0.2791606402516365,0.10115092848837375,-0.1904334870665334
1776820796067779000,0.779779052734375,-0.22900047881007193,0.1206323124192655,-0.23754041668362913
1776820796077820400,0.7898203125,-0.09577683423459529,0.04302358755990863,-0.2190609398042783
1776820796087861200,0.799861328125,0.00016658873856067658,0.03086027155742049,-0.15150568092027678
1776820796097903400,0.8099033203125,-0.0026619126856327053,0.02854848748371005,-0.14771682829763738
1776820796107944200,0.819944091796875,0.0546896215647459,0.01861483022943139,-0.18027087989458812
1776820796117986300,0.829986328125,0.006029927814006805,0.04541150560975075,-0.12657664430905133
1776820796128027100,0.840027099609375,-0.11467267336249351,0.011856734271347522,-0.04420963727300986
1776820796138068200,0.850068115234375,-0.2212368590712547,0.006799450881779193,-0.0037944421132095154
1776820796148110000,0.860110107421875,-0.3891892872005701,0.04923617846444249,-0.04368042576713487
1776820796158151200,0.870151123046875,-0.34333763660788535,0.050977469173818825,-0.12183242719033732
1776820796168192300,0.880192138671875,-0.22892098383307455,0.06129165017828345,-0.10211303325248881
1776820796178234400,0.890234375,-0.19465689518153667,0.044857378858327863,-0.06992249947199597
1776820796188275500,0.900275390625,-0.11444704791307449,0.0326877792455256,-0.053202068154420704
1776820796198317300,0.9103173828125,-0.06610825667977333,0.04549202350005507,-0.01311130090970546
1776820796208358400,0.9203583984375,-0.07739186723828315,0.0020896657556295395,0.022259324211627244
1776820796218399200,0.930399169921875,-0.13535773399472237,0.07663359621688723,0.03620760566843673
1776820796228441300,0.94044140625,-0.1978922238409519,0.12761018860787152,0.07358304953984916
1776820796238482200,0.950482177734375,-0.19277064304351804,0.133366560177505,0.05928728808593005
1776820796248524300,0.960524169921875,-0.1601087288916111,0.16883403326943516,0.0947136619824916
1776820796258565000,0.970565185546875,-0.06997662254571914,0.14498247143030166,0.11449651307798922
1776820796268606200,0.980606201171875,0.03717559218406677,0.1425673731125891,0.09808766846023499
1776820796278648000,0.99064794921875,0.11786533192396163,0.16912834004089236,0.09888809812292457
1776820796288689200,1.000689208984375,0.12267360898852347,0.18566884821429847,0.07260843235403298
1776820796298731300,1.010731201171875,0.06670563805103302,0.13609130896627902,0.10698325137104839
1776820796308772400,1.0207724609375,-0.013032500052452087,0.1024251862078905,0.1671640907632187
1776820796318814200,1.030814208984375,-0.06552256574630737,0.0691020316682756,0.17637213715668767
1776820796328855300,1.040855224609375,-0.12373159360885619,0.025360943488776683,0.1617617019967176
1776820796338896400,1.050896484375,-0.21226912423968314,0.038457156427204604,0.17319827462723478
1776820796348938200,1.060938232421875,-0.2260994966715574,0.03594590425863862,0.09438052103798836
1776820796358979300,1.070979248046875,-0.23085282867848872,0.02766366747319698,0.03412020493512973
1776820796369021200,1.081021240234375,-0.23466449592113495,0.04375920835807919,0.03378920114878565
1776820796379062300,1.091062255859375,-0.1482353357464075,0.020639029533416033,0.022749317951966077
1776820796389103000,1.10110302734375,-0.05565642077028751,0.027630349725484848,-0.06049580535916611
1776820796399145200,1.111145263671875,-0.02872983539998531,0.042052550570666786,-0.07274800522150471
1776820796409186000,1.12118603515625,-0.09984101493358612,0.04220072686970234,-0.04708857197649777
1776820796419228400,1.131228515625,-0.11801438500583171,0.034096038608253,-0.055103408263716847
1776820796429269200,1.141269287109375,-0.11599252378940582,0.06924304757416248,-0.038551447114534676
1776820796439311400,1.151311279296875,-0.17308862197399139,0.05955518177449703,-0.08181779392175376
1776820796449352200,1.161352294921875,-0.18555062866210936,0.10225099868476391,-0.08986180150453
1776820796459393300,1.171393310546875,-0.13750117576420307,0.09809344061389565,-0.01789619709867984
1776820796469435100,1.18143505859375,-0.07208148587048054,0.06431757387071847,0.012981372653413563
1776820796479476200,1.191476318359375,-0.02159749930202961,0.08164879403039813,0.051705089328624304
1776820796489518000,1.20151806640625,-0.014056582403182983,0.07637260719314218,0.07328105265228077
1776820796499559200,1.21155908203125,0.005026888251304626,0.11130042045041919,0.05515727560911327
1776820796509600300,1.221600341796875,0.0005517886638641358,0.13645064379796384,0.06729143858235329
1776820796519642000,1.23164208984375,-0.10599953756332396,0.11936667639762162,0.0854956604505889
1776820796529683500,1.241683349609375,-0.14101239875555038,0.12146832485198975,0.06997369993627071
1776820796539725300,1.251725341796875,-0.13460954597592353,0.13193433541730046,0.0009490991520695387
1776820796549766400,1.261766357421875,-0.0892500628143549,0.15452566806226967,-0.037623262886330486
1776820796559808300,1.271808349609375,-0.054633507463335985,0.060799482747167344,-0.012358929906133562
1776820796569849300,1.281849365234375,-0.0609551117002964,0.09647782211080193,0.02375367268892005
1776820796579890200,1.29189013671875,-0.039914661759138104,0.10784501929953694,-0.027865985112264752
1776820796589932300,1.301932373046875,0.1929915923178196,0.10151946953982115,-0.00022768954234197734
1776820796599973000,1.31197314453125,0.14314473460912705,0.08398059797883033,0.23639665347598493
1776820796610015200,1.32201513671875,-0.22764555706977843,-0.09344590706899762,0.3592736030168831
1776820796620056000,1.33205615234375,-0.6720517045795917,0.03540259116217494,0.11769068774310872
1776820796630098400,1.342098388671875,-0.9696627782791852,0.1122112516850233,-0.3098361298266798
1776820796640139300,1.35213916015625,-0.7622329107642173,0.13982596544995904,-0.5913143263056874
1776820796650181400,1.362181396484375,-0.3687269294083118,0.22383754308894274,-0.6621191433038562
1776820796660222200,1.37222216796875,0.17025485985279082,0.05183583956882357,-0.4917151573039591
1776820796670263300,1.38226318359375,0.5229162051230669,-0.08547200558036565,-0.1649398023098707
1776820796680305200,1.39230517578125,0.6088561204761266,-0.05079305251762271,0.18227414600839836
1776820796690346200,1.40234619140625,0.4834662382662296,-0.15446078613251446,0.5771879666019231
1776820796700388000,1.41238818359375,-0.0013350479960441588,-0.23094708283320067,0.6969467841222882
1776820796710429200,1.42242919921875,-0.31869419373869895,-0.12931567735150457,0.48209502297826107
1776820796720471000,1.432470947265625,-0.41085459104180333,0.022825725922733544,0.17102217269716782
1776820796730512100,1.44251220703125,-0.37458734587430953,0.07394669522047043,-0.08011155625944957
1776820796740554200,1.45255419921875,-0.21918752532601354,0.13936258572191,-0.2198179869829677
1776820796750595300,1.46259521484375,-0.028072248274087903,0.08841068938076496,-0.20910479672355575
1776820796760637200,1.47263720703125,0.010335516053438186,-0.007675503063946962,-0.14260819831332192
1776820796770678300,1.48267822265625,0.11558335846662521,0.00443418305516243,-0.07506811873214318
1776820796780719400,1.49271923828125,0.1705167256593704,0.019643442624807356,0.04972202575262635
1776820796790761200,1.50276123046875,0.14848609563708304,0.004997662156820297,0.15160923262629658
1776820796800802300,1.51280224609375,0.04333294577002525,0.06140402451157569,0.20414209628226235
1776820796810844200,1.52284423828125,-0.18696283354759216,0.1128168163627386,0.18399022921128197
1776820796820885200,1.53288525390625,-0.35574236015081406,0.15129501557797193,0.0918769407192245
1776820796830927000,1.542927001953125,-0.3695499362289905,0.1402504744723439,0.026222930612973868
1776820796840968200,1.55296826171875,-0.29881635783612726,0.1067687683701515,-0.05567149047525599
1776820796851010300,1.56301025390625,-0.17532149559259413,0.08552548933327198,-0.14231199184572324
1776820796861051400,1.573051513671875,-0.08316518994271754,0.06321107393354176,-0.13084460395183414
1776820796871093200,1.58309326171875,-0.061271922564506524,0.04266454498916864,-0.03801814395543188
1776820796881134300,1.59313427734375,0.0553822800040245,0.012482757215201853,0.06658743676515295
1776820796891176200,1.60317626953125,0.09986088867783546,-0.001978022074699402,0.13659604361802338
1776820796901217300,1.61321728515625,-0.003590717968344688,0.011962532733380793,0.14896586024435235
1776820796911258000,1.623258056640625,-0.13082301317453385,0.04501432298570871,0.09351612276099622
1776820796921300200,1.63330029296875,-0.19053893846869469,0.032230244736373426,0.07631894077714532
1776820796931341000,1.643341064453125,-0.2767623469382524,0.0024716508105397223,0.049595367165654894
1776820796941383200,1.653383056640625,-0.3156751381784677,0.04378741153925657,-0.031588430568343026
1776820796951424000,1.663424072265625,-0.27126784117519853,0.04557809434831142,-0.0723610517305322
1776820796961466400,1.67346630859375,-0.19879180302917956,0.038652971260249615,-0.10666073228525928
1776820796971507200,1.683507080078125,-0.06525719280838967,0.068969783590734,-0.13332795433332212
1776820796981549300,1.69354931640625,-0.04274024057388305,0.06485211913883686,-0.07931912724012509
1776820796991590100,1.703590087890625,-0.11076397548615932,0.0686775226458907,0.009777873037522658
1776820797001632300,1.71363232421875,-0.13178981238007545,0.08467559450566768,0.06076114176446572
1776820797011673000,1.723673095703125,-0.05860533370375633,0.08152560604214668,0.07375091692004353
1776820797021715200,1.733715087890625,0.08529577223062515,0.08832301109731197,0.09968164138710126
1776820797031756300,1.74375634765625,0.32233693415522574,0.18256605989336966,0.11103077319618314
1776820797041798100,1.753798095703125,0.47623453344702715,0.2554226217895746,0.21448700121855363
1776820797051839200,1.763839111328125,0.49775546038150786,0.20324381400197744,0.3617706805296242
1776820797061881300,1.77388134765625,0.47748190315961836,0.23703999288082123,0.3765753048211336
1776820797071922200,1.783922119140625,0.426222840565443,0.3637437341682613,0.24590024874992666
1776820797081964000,1.793964111328125,0.2351326979547739,0.3660805065527558,0.15798209212645886
1776820797092005000,1.804005126953125,0.07042611987888812,0.3338917628705501,0.04095739401141181
1776820797102047200,1.814047119140625,0.00012976385951042174,0.33440833409056064,-0.14036628287173808
1776820797112088300,1.82408837890625,-0.15278583865761755,0.2680354351252317,-0.1436501542474609
1776820797122129200,1.834129150390625,-0.33969372714757917,0.15498583291992543,-0.13413158060009592
1776820797132171300,1.844171142578125,-0.41257074730992316,0.14060235664993523,-0.19514814929720012
1776820797142212000,1.854212158203125,-0.6977718367695808,0.05395969985499978,-0.17349475508946924
1776820797152254200,1.864254150390625,-0.9819839151918888,0.02551233465820551,-0.19565657374337314
1776820797162295000,1.874294921875,-1.1822300086826085,0.020589637433737516,-0.25715941898692396
1776820797172337200,1.884337158203125,-1.370671098089218,-0.1427678641207516,-0.15125735958185976
1776820797182378000,1.8943779296875,-1.3082114270448684,-0.2592537243850529,-0.09544661589954048
1776820797192420000,1.904420166015625,-0.8889332910507917,-0.19147227379605172,-0.17321517096310854
1776820797202461000,1.9144609375,-0.4350456139683723,-0.07145064062103629,-0.21517094662841407
1776820797212503300,1.92450341796875,-0.021628478962182996,-0.06910086262449622,-0.1325493711762596
1776820797222544100,1.934544189453125,0.24679683226346968,-0.05402385113239288,-0.08396846914961933
1776820797232586200,1.944586181640625,0.4838894321143627,0.010821107613295316,-0.05356749480017461
1776820797242627000,1.954626953125,0.6440460918009281,0.0692898093253374,-0.03930153482947498
1776820797252669200,1.964669189453125,0.6502800177544354,0.1436655436128378,0.016597325527714566
1776820797262710000,1.9747099609375,0.47616497534215446,0.1417673087760806,0.12047115790764801
1776820797272752000,1.984752197265625,0.30929274366497994,0.18607830579802392,0.11357143412232398
1776820797282793000,1.99479296875,0.15365385366380213,0.23732187856212256,0.07463528027283027
1776820797292835000,2.0048349609375,0.07405424724817275,0.219636145876348,0.049568890150683
1776820797302876000,2.0148759765625,0.0003612345278263092,0.2272597726225853,0.060243648095848035
1776820797312918300,2.024918212890625,0.005413841742277145,0.21036431353166699,0.07125625056009739
1776820797322959000,2.034958984375,-0.019051906472444532,0.1300295247092843,0.03662318246569484
1776820797333001200,2.045001220703125,-0.06015899288654327,0.11492664812356233,0.018239466711552813
1776820797343042000,2.0550419921875,-0.09836275907456875,0.11397037031203508,0.04514058884703554
1776820797353084200,2.065084228515625,-0.12329261766970157,0.045429918049275875,-0.04015271743186749
1776820797363125000,2.075125,-0.09696516723632811,0.023438304863125085,-0.07025674552819691
1776820797373167000,2.0851669921875,-0.06962590941190719,-0.008528320500999689,0.01203200863986276
1776820797383208000,2.0952080078125,-0.15117138919830322,0.001235533144325018,0.056506735723000016
1776820797393250300,2.105250244140625,-0.23219898259043692,0.014761515802145003,0.11377658303929492
1776820797403292200,2.115292236328125,-0.24678864895701408,0.0308097104139626,0.145031635201117
1776820797413333200,2.125333251953125,-0.27176936095654963,0.05051905788183212,0.11392451274315826
1776820797423375000,2.135375,-0.22720015138983726,0.05160656085759401,0.06098635622193105
1776820797433416200,2.145416259765625,-0.11300210980176925,0.06970730408504605,0.00780244477870874
1776820797443458000,2.1554580078125,-0.07048632563352585,0.06615063451677561,-0.024118268217612055
1776820797453499100,2.1654990234375,-0.09029460343122482,0.06845058202221989,-0.0600594323690515
1776820797463541000,2.175541015625,-0.11159575013518333,0.07196209727451205,-0.041659340868843715
1776820797473582000,2.18558203125,-0.1646662460654974,0.07554419354498386,-0.04451594500951469
1776820797483624200,2.195624267578125,-0.2157224795639515,0.035339462798088785,-0.018996102898288517
1776820797493665300,2.205665283203125,-0.15882219621241092,0.03619929449781775,0.016033115773694588
1776820797503707100,2.21570703125,-0.09244915111660956,0.04242942105904221,0.04720233454927802
1776820797513748200,2.225748291015625,-0.011119944429397583,0.035362113021314145,0.08806667998237534
1776820797523790000,2.2357900390625,0.03641454468369484,0.06512231438234448,0.05569532800856977
1776820797533831200,2.2458310546875,-0.043053544306755065,0.10049962497279047,0.045176582609023894
1776820797543873000,2.255873046875,-0.1003472108900547,0.09068389500975609,-0.026229789612023158
1776820797553914000,2.2659140625,-0.07164893967211246,0.08241364092305302,-0.10994524298179895
1776820797563956000,2.2759560546875,-0.15007365708947182,0.04343626001402735,-0.09510520945019088
1776820797573997000,2.2859970703125,-0.32022681013345716,-0.031536855644732714,-0.06058509107781574
1776820797584039200,2.2960390625,-0.3206792300760746,-0.04357186909243464,-0.09694322026600129
1776820797594080300,2.306080322265625,-0.17511282127797603,0.03669540745168924,-0.10935444661495275
1776820797604122000,2.3161220703125,-0.05400631547570228,-0.01852232964038849,-0.045467930238414556
1776820797614163200,2.3261630859375,0.04857610712051391,-0.03661065177768469,0.047248301716009154
1776820797624205000,2.336205078125,0.16177461627721784,-0.030541268736124037,0.11553902613455429
1776820797634247200,2.3462470703125,0.07938859401345252,-0.028206396047770976,0.13477871939721517
1776820797644288000,2.3562880859375,-0.07841185793578624,0.03742313720434904,0.11365051810736768
1776820797654330000,2.366330078125,-0.10546762264370918,0.07008417457342148,0.04712797240512445
1776820797664371000,2.376370849609375,-0.17362521306872367,0.06548281825780868,0.0038950164108537133
1776820797674413300,2.386413330078125,-0.2497755558133125,0.06499181987047195,-0.03187744924332946
1776820797684454100,2.3964541015625,-0.22020342437028884,0.10667407582402229,-0.07267652002102695
1776820797694496300,2.406496337890625,-0.13836626816093922,0.0898401376619935,-0.022301263657212255
1776820797704537000,2.416537109375,-0.08391162439584732,0.06337766267210244,0.05209313879813999
1776820797714579200,2.4265791015625,-0.008534019589424133,0.030584523355960843,0.08777701285341755
1776820797724620000,2.4366201171875,0.03877601311802864,0.0007034720942378044,0.12402065794961527
1776820797734662100,2.446662109375,-0.052475452646613116,0.021837445537745952,0.13514968986776657
1776820797744703000,2.456702880859375,-0.10072247394323348,0.06402648196965456,0.06593321064012125
1776820797754745000,2.4667451171875,-0.11149521237015723,0.10742869358360767,0.0163855824731756
1776820797764787200,2.476787109375,-0.19470365693271158,0.11040975522100925,0.008334003505297005
1776820797774828300,2.486828369140625,-0.1774444790959358,0.11090279943495988,-0.0035693007209803905
1776820797784870100,2.4968701171875,-0.06779051067829131,0.08895400247722864,0.0052162733435630795
1776820797794911200,2.5069111328125,0.049931028860807414,0.0946568902939558,0.01996267377496697
1776820797804953000,2.516953125,0.0725403355538845,0.11868424709141254,0.028020691616786643
1776820797814994200,2.526994140625,0.030053777480125426,0.09745558110177516,0.08689255816908553
1776820797825036000,2.5370361328125,0.02860357867181301,0.10451631326824426,0.07819882710645906
1776820797835077000,2.5470771484375,-0.04442249457240104,0.12177666014879941,0.07524721075925045
1776820797845119000,2.557118896484375,-0.11655834097862243,0.10434271026700734,0.026256695885257794
1776820797855160000,2.56716015625,-0.2247971819013357,0.1200496902257204,-0.08709076588861643
1776820797865202200,2.5772021484375,-0.21421558213233946,0.1450058523058891,-0.21911968425419182
1776820797875244000,2.587244140625,-0.20251345390081404,0.1443921043217182,-0.29385837010256943
1776820797885285000,2.59728515625,-0.34129356355965135,0.08209902201592922,-0.20329536152612418
1776820797895327000,2.607326904296875,-0.40436815163195133,0.03132832746058702,-0.09606852892385795
1776820797905368000,2.6173681640625,-0.2606909175813198,0.06199819101244211,-0.12361837902534753
1776820797915410000,2.627409912109375,0.027231705796718596,0.14988953269422053,-0.1838733065670356
1776820797925451000,2.637450927734375,0.25654724190533157,0.16372282773554325,-0.26834545092247425
1776820797935493000,2.6474931640625,0.2682090381264686,0.17657324921935796,-0.26922676380164917
1776820797945534000,2.657533935546875,0.1294002868950367,0.20019582460820673,-0.0877857989480719
1776820797955576000,2.667576171875,0.03907528832554817,0.21344898167401552,0.034411863091774283
1776820797965617200,2.6776171875,0.0692728581905365,0.28970132348835465,0.032872342032194135
1776820797975659000,2.687658935546875,0.2372410684108734,0.38812370379567146,-0.0965160717619583
1776820797985701000,2.697701171875,0.573670240804553,0.41178251954168077,-0.3731283792376518
1776820797995742200,2.7077421875,0.8791735290586948,0.4229831279918551,-0.7408725081536919
1776820798005784000,2.7177841796875,1.1996329789042472,0.49380058527588844,-1.0223177522111684
1776820798015825200,2.7278251953125,1.1236837116897105,0.45185544060245153,-1.000456195145473
1776820798025867300,2.7378671875,0.7764367926836013,0.46948695888295766,-0.7065797779295593
1776820798035908000,2.747908203125,0.6886603095531463,0.8452610303238034,-0.5271002858746796
1776820798045950200,2.7579501953125,0.5522942752987146,0.30580344024449585,-0.1381305597089231
1776820798055992000,2.767991943359375,0.044374563777446745,0.5163898720942437,-0.13076828731261192
1776820798066033200,2.778033203125,-0.24493337647914884,0.30123715524226424,-0.048895329137519
1776820798076075000,2.788074951171875,-0.636295331543684,0.14941446252837776,0.14727416256405412
1776820798086115800,2.79811572265625,-0.9949275679171085,-0.036035189977288246,0.34818427292145787
1776820798096157700,2.80815771484375,-1.0574597196757793,-0.06058496321365237,0.5144562736831605
1776820798106198800,2.81819873046875,-0.8350631691753864,-0.27705124688223004,0.5647050632562488
1776820798116241000,2.828240966796875,-0.7471668590575457,-0.3118519266285002,0.44398806822821496
1776820798126282000,2.838281982421875,-0.630683336880803,-0.1392174781627953,0.3310967253245413
1776820798136323800,2.84832373046875,-0.36148762580454347,-0.10340396811217069,0.250690332570672
1776820798146366000,2.858365966796875,-0.19443886851668357,-0.32765812917798753,0.2662355460964143
1776820798156406800,2.86840673828125,-0.1561398252606392,-0.09450739882066846,0.15624087448231874
1776820798166449000,2.878448974609375,-0.19499299526810646,-0.1758531182512641,0.26166268522292374
1776820798176489700,2.88848974609375,-0.32891631254553794,0.049778176386654376,0.43713367228880523
1776820798186531800,2.89853173828125,-0.10851882690787315,-0.06504442684054375,0.6053280194152146
1776820798196572700,2.90857275390625,-0.12850830649137496,-0.13711772940456868,0.8471751203168183
1776820798206615000,2.918614990234375,-0.07945639855265617,-0.12229542332589625,0.9549501431200653
1776820798216657000,2.928656982421875,-0.04043605528473854,-0.326205446151644,1.0623817593131213
1776820798226698000,2.938697998046875,-0.2055915461719036,-0.07772241436690092,1.106847362374887
1776820798236739800,2.94873974609375,-0.18293197059631347,-0.29534561298564077,1.0279028588671237
1776820798246781000,2.958781005859375,-0.15052841511964798,-0.08772942911833524,0.6907847543612122
1776820798256822800,2.96882275390625,-0.1825122838795185,0.062423284556716675,0.4227610096737742
1776820798266863900,2.97886376953125,-0.22121406271755695,0.04121683039888739,0.22029724013358354
1776820798276906000,2.988906005859375,-0.21224632788598535,0.04790865618772804,0.09404277698360383
1776820798286947800,2.99894775390625,-0.1903717652082443,-0.035599721169471736,0.17684256768003104
1776820798296989000,3.008989013671875,-0.10517419265508651,-0.055829512314870954,0.22100085835829375
1776820798307031000,3.019031005859375,-0.120028062915802,-0.10566387586817144,0.23588855782337487
1776820798317072000,3.02907177734375,-0.194715931892395,0.049004123274236915,0.1496853884242475
1776820798327114000,3.039114013671875,-0.11165537136793136,0.18167334883734582,-0.09383154538571833
1776820798337154800,3.04915478515625,0.028667291557788847,0.2278290238779038,-0.34099794161394237
1776820798347197000,3.059197021484375,-0.08058218771219253,0.24714484198354184,-0.3686139705531299
1776820798357239000,3.069239013671875,-0.20855273406505584,0.13176884265728295,-0.23633272139430045
1776820798367280000,3.079280029296875,-0.11326163752079009,0.04418495948947966,-0.07944953042045236
1776820798377322000,3.089322021484375,0.06683657095432281,-0.004228431349992752,0.10041833989750594
1776820798387363000,3.099363037109375,0.07478665317595004,-0.10865597035624086,0.24766762374863027
1776820798397405000,3.109405029296875,-0.013469722425937651,-0.1812965514142066,0.2970308626588434
1776820798407446800,3.11944677734375,-0.32725393229126926,-0.16572678796909748,0.27773122850302606
1776820798417488000,3.12948779296875,-0.40206162825524805,-0.06700147919245064,0.2795639968881383
1776820798427529700,3.13952978515625,-0.13230886781811713,0.1463748025715351,0.04906772656235844
1776820798437570800,3.14957080078125,-0.10388356832265853,0.15304609702900052,-0.06524855284420773
1776820798447613000,3.159613037109375,0.09179507112205028,0.13989515822865067,-0.032404651455208655
1776820798457654000,3.169654052734375,0.3473170616328716,0.1664722725741565,-0.06367549484120681
1776820798467695900,3.17969580078125,0.30169279005527494,0.07807590397968887,0.0645133247716818
1776820798477738000,3.189738037109375,0.14853870260715485,0.1808488807119429,0.07794245032574981
1776820798487778800,3.19977880859375,-0.3208756294310093,0.2748320364627987,0.10635538352997972
1776820798497821000,3.209821044921875,-0.40189036334156986,0.2833510046135634,0.06083950423030182
1776820798507861800,3.21986181640625,-0.21392332118749618,0.4190088905986398,-0.23162958520464597
1776820798517904000,3.22990380859375,-0.07787000614404678,0.30809794438984245,-0.2854262765176594
1776820798527946000,3.239946044921875,0.08520926299095154,0.18226218157596885,-0.1140208035913296
1776820798537987000,3.249987060546875,0.06954875252246856,0.03513688943069428,0.11062787321740761
1776820798548029000,3.26002880859375,-0.06911269919276238,-0.08778141503389925,0.29817433360554274
1776820798558070000,3.270070068359375,-0.31456746919751166,-0.043792526105791325,0.3535312599726021
1776820798568111900,3.28011181640625,-0.7774795797348022,-0.04477689750064164,0.49554121839813886
1776820798578153700,3.29015380859375,-1.116163253057003,-0.07320486387722194,0.48263369643222537
1776820798588194800,3.30019482421875,-1.2173176886767147,0.055138278647698456,0.21006109280139207
1776820798598236700,3.310236572265625,-0.8717243820965289,0.14973620529603213,-0.17711093629263341
1776820798608277800,3.32027783203125,-0.5137193377107382,0.12915160936359316,-0.36252383698448537
1776820798618320000,3.33031982421875,-0.3084112846553326,0.11377079261932521,-0.35034758843518793
1776820798628362000,3.340362060546875,-0.2719149069070816,0.07632069434281438,-0.24325682156905531
1776820798638402800,3.35040283203125,-0.3609428514033556,-0.08578673408534378,0.02559577515795827
1776820798648445000,3.36044482421875,-0.436415148755908,-0.13419168589003383,0.3035925592619926
1776820798658486000,3.370486083984375,-0.5853285298943519,-0.11357238397039472,0.4620508175328374
1776820798668527900,3.38052783203125,-0.7922948715507984,-0.126093756162934,0.46401663771308954
1776820798678569700,3.39056982421875,-0.8870026152491569,0.01718582033962011,0.20723463720381258
1776820798688610800,3.40061083984375,-0.7915355776160955,0.21350812798272817,-0.020053630860894917
1776820798698653000,3.41065283203125,-0.5505173287540673,0.2084836143516004,-0.21339126013740897
1776820798708694000,3.420694091796875,-0.34365152486264705,0.19601119586732238,-0.3674786829128861
1776820798718736000,3.43073583984375,0.015268880802392958,0.2796998251622543,-0.44098917867317794
1776820798728778000,3.440778076171875,0.23601123435497282,0.29872860648743804,-0.4414258165247738
1776820798738818800,3.45081884765625,0.11374679068922997,0.15664258715100585,-0.23093276204690336
1776820798748861000,3.46086083984375,0.004262333619594574,0.041588147929310794,-0.04116597699448466
1776820798758901800,3.47090185546875,-0.3025742490649223,0.050944662882760165,0.01093947329595685
1776820798768943900,3.48094384765625,-0.7009376073241234,0.07882906043455004,0.02236541493460536
1776820798778986000,3.490986083984375,-0.8724819224655628,0.10518975555039942,0.06589958236515521
1776820798789027000,3.501027099609375,-0.7597171285510063,0.046794630531221626,0.1357503865741193
1776820798799069000,3.51106884765625,-0.5483481680214405,0.10117935086525975,0.11704992388784885
1776820798809110000,3.521110107421875,-0.23809271680414676,0.141246207511425,0.09347323346734046
1776820798819152000,3.53115185546875,0.10320143127739428,0.17978483167700468,0.010650573351979255
1776820798829193700,3.54119384765625,0.5008908357977867,0.15508461711928248,-0.14191694637984037
1776820798839234800,3.55123486328125,0.7100847903758287,0.17248503005765378,-0.26141163307130333
1776820798849276700,3.561276611328125,0.5444552522361278,0.23467735540270804,-0.4082537608936429
1776820798859319000,3.571319091796875,0.2292588374853134,0.2221723863556981,-0.46817719145864245
1776820798869359900,3.58135986328125,-0.15711363872885703,0.15895006037577986,-0.33973289011418817
1776820798879402000,3.591402099609375,-0.3007704145133495,0.2390226180654019,0.002994505640864372
1776820798889442800,3.60144287109375,-0.3106576022773981,0.16980075940974057,0.08985270488262176
1776820798899485000,3.61148486328125,-0.3563999472767114,0.18611206193715332,0.0471279541388154
1776820798909526800,3.62152685546875,-0.24052491238713264,0.24574352381825446,0.0208703540712595
1776820798919568000,3.63156787109375,-0.09408464336395263,0.20516718327999114,-0.034685821194946766
1776820798929610000,3.64160986328125,-0.05162848042845726,0.1253276306286454,-0.1039352985098958
1776820798939651000,3.651651123046875,-0.06587503244578838,0.10015139605700969,-0.25447394276261326
1776820798949693000,3.66169287109375,-0.13112228838205336,0.1272306877709925,-0.3992956706732511
1776820798959735000,3.671735107421875,-0.2851075659573078,0.09754998138695954,-0.3989697997197509
1776820798969775900,3.68177587890625,-0.11954583235681056,0.2389450958497822,-0.6034560149982571
1776820798979818000,3.69181787109375,-0.19189152212142943,0.1617142643921077,-0.71533233564049
1776820798989859800,3.70185986328125,0.0094242464274168,0.19060016713663935,-0.6145797588199376
1776820798999901000,3.71190087890625,0.143417121809721,0.25314108672365543,-0.6714344494640827
1776820799009943000,3.721943115234375,0.21764555658102033,0.251661077298969,-0.6470937889337539
1776820799019985000,3.73198486328125,0.3024257805049419,0.2689513809263706,-0.665230918648839
1776820799030026000,3.74202587890625,0.2154302186191082,0.2053586141988635,-0.6385282051622867
1776820799040067800,3.75206787109375,0.03599661153256893,0.1356463416777551,-0.41111411876082415
1776820799050109000,3.76210888671875,-0.22025486229658126,0.12502967059537767,-0.4900622755303979
1776820799060150800,3.77215087890625,-0.22182255000472068,0.12746771139726043,-0.5478355423241853
1776820799070193000,3.78219287109375,-0.011651859349012373,0.1685090390987694,-0.5176911639511584
1776820799080234000,3.79223388671875,-0.008689502412080764,0.11196370666474104,-0.49001697508394715
1776820799090276000,3.802276123046875,0.012145195823907851,0.11601502788215876,-0.39562282737940546
1776820799100318200,3.812318115234375,-0.1658463957607746,0.033381168337166305,-0.1871326371565461
1776820799110359300,3.822359375,-0.42067923496365545,-0.23112053970396518,0.027583295713365076
1776820799120401200,3.832401123046875,-0.4777765021920204,-0.27812545198500155,0.021740122643113136
1776820799130443000,3.842443115234375,-0.35097499961853024,-0.19586977810263634,-0.12044219667464494
1776820799140484000,3.852484130859375,-0.176873401209712,-0.027655191905796527,-0.15861790581196544
1776820799150526000,3.86252587890625,-0.10584639282822608,0.06921937443763017,-0.3718216805532574
1776820799160567000,3.872567138671875,0.40048984889388084,0.20479718092381952,-0.09838584768921137
1776820799170609000,3.88260888671875,0.7438274855017661,0.2620359024494886,-0.1932677789106965
1776820799180651300,3.8926513671875,0.7500181568354368,0.15561112521141768,-0.3561708146959543
1776820799190692000,3.902692138671875,0.6978472400933504,0.10814268707185982,-0.1259723582729697
1776820799200734200,3.912734130859375,0.46380175285339353,0.0954866191163659,-0.10218787032067775
1776820799210776000,3.922776123046875,0.1136708028435707,0.12538871316611766,-0.09307400501668453
1776820799220817200,3.932817138671875,-0.1327986971616745,0.1507628083974123,-0.08540244747549294
1776820799230859000,3.94285888671875,-0.11650924113988875,0.13676818531453608,-0.10135814149826765
1776820799240901000,3.952901123046875,0.060358314850926395,0.10436784470826387,-0.17782558736801146
1776820799250942000,3.96294189453125,0.20074936683773995,0.06459229915887117,-0.22501491630524395
1776820799260984000,3.972984130859375,0.09992986226081847,0.10157032294422387,-0.19135405424386262
1776820799271026200,3.983026123046875,0.0219943896651268,0.2631219441205263,0.004445581232011318
1776820799281067000,3.99306689453125,0.29610242270231246,0.4310767103374004,0.12891308789998293
1776820799291109000,4.003109130859375,0.6307534795075654,0.5974418692752719,0.18757599700987337
1776820799301150200,4.013150146484375,0.843562701973319,0.4506891733020544,0.37454584482014175
1776820799311192000,4.023192138671875,0.8568833713173866,0.4725783490270376,0.36253830390125513
1776820799321234200,4.033234130859375,0.6692641196876764,0.5536404292106628,0.24437851907536387
1776820799331275300,4.043275146484375,0.34612229889035223,0.5016457458183169,0.15751944305077195
1776820799341317000,4.053317138671875,0.19039163895249367,0.5085542100325227,0.03173763891384005
1776820799351359200,4.063359130859375,0.10164835661649703,0.4755211244806647,-0.11782266182601452
1776820799361400000,4.073400146484375,-0.1419043791592121,0.47151744179725646,-0.18773235661536455
1776820799371442200,4.083442138671875,-0.39131402426958084,0.46719694824963803,-0.07743862898945808
1776820799381484000,4.093484130859375,-0.4716331771314144,0.33077684572041033,0.17575579535663127
1776820799391525000,4.103525146484375,-0.3788239605307579,0.20672522637695073,0.2006136116288602
1776820799401567200,4.113567138671875,-0.23927403554320334,0.12607055795043706,0.11791764663308858
1776820799411609000,4.123609130859375,0.06352934610247611,0.20891016920059918,-0.03471943120360374
1776820799421650200,4.133650146484375,0.22403087370395658,0.26087884136885403,-0.16997867325991392
1776820799431692000,4.143692138671875,0.23111294091939924,0.28260405870378014,-0.1964354491613805
1776820799441734100,4.153734130859375,0.16067337703704834,0.30423399897068737,-0.1873486179947853
1776820799451775000,4.16377490234375,-0.09398644368648529,0.21602350833714007,0.11503303110748529
1776820799461817000,4.173817138671875,-0.23382862961888312,0.1601283103749156,0.3328790786966681
1776820799471859200,4.183859130859375,-0.009692541974782943,0.06633534343391656,0.36532318537943065
1776820799481900300,4.193900390625,0.19572598571777342,0.09056494480520487,0.3784370801050216
1776820799491942100,4.203942138671875,0.19951251851916313,0.11364099222719669,0.4508583923891186
1776820799501984000,4.21398388671875,0.2819265978336334,0.1508823431238532,0.37055809035822745
1776820799512025000,4.224025146484375,0.3760334530293941,0.3032479105427861,0.23373678661696612
1776820799522067000,4.23406689453125,0.2786930227398872,0.3154778620406985,-0.020235965157859026
1776820799532109000,4.244109130859375,-0.01142155772447586,0.23442747229486702,0.019383732242695986
1776820799542150100,4.254150146484375,-0.3934031055033207,0.1821355595216155,0.2763003919823095
1776820799552192300,4.264192138671875,-0.4526888226866722,0.1593397903457284,0.4092418220829218
1776820799562234000,4.274234130859375,-0.44321021572351454,-0.08560790691971779,0.3336357422828674
1776820799572275200,4.284275146484375,-0.2065712048590183,0.027611645025014876,0.2661509182865731
1776820799582317000,4.294317138671875,0.2236895129203796,0.1327691788062453,0.24175797957973552
1776820799592359200,4.304359130859375,0.6207189922273159,0.18468699757009743,0.06117991973238531
1776820799602400000,4.31439990234375,0.9129068718343972,0.23717238708883523,-0.027944539374345913
1776820799612442000,4.324442138671875,1.1202402932375668,0.3071984017342329,-0.09234770003613084
1776820799622484200,4.334484130859375,1.1353957767933607,0.27954467113316056,-0.07012613228531554
1776820799632525300,4.344525390625,0.5137175841450691,0.17648060249984263,0.17253876953888683
1776820799642567200,4.354567138671875,-0.01984510267674923,0.21281594446748495,0.20198183124214408
1776820799652609000,4.364609130859375,-0.17354688713550567,0.22459026115238664,0.30571875763572753
1776820799662650000,4.374650146484375,-0.44614217752218244,0.14600304664969443,0.49645931962374595
1776820799672692000,4.38469189453125,-0.3744657653212547,0.17420827365368605,0.5229305259093642
1776820799682734000,4.394734130859375,-0.13034253618121147,0.15931436364352702,0.621349472150579
1776820799692776200,4.404776123046875,-0.19108838904500006,-0.22945348327457904,0.8620447726685553
1776820799702817300,4.4148173828125,-0.21285832230448723,0.35809769110530615,0.6644634414076804
1776820799712859100,4.424859130859375,0.461781060680747,-0.03861994577348232,0.5019755622945725
1776820799722901000,4.43490087890625,0.49386897433698174,-0.0021881576940417286,0.36695904295295473
1776820799732942000,4.444942138671875,0.37662498918175696,0.24511896217912435,-0.2689350873786956
1776820799742984000,4.45498388671875,0.3077542820513248,0.38470834239423274,-0.48006001001931725
1776820799753026000,4.465026123046875,-0.04976502464413642,0.35254911706745623,-0.3820193225059658
1776820799763067000,4.47506689453125,-0.4477987125575542,0.3042544572368264,-0.10137596941590309
1776820799773109200,4.485109130859375,-0.8133926046371459,0.1788169364929199,0.1835236528791487
1776820799783151000,4.495151123046875,-0.9349854326516389,0.026940613895654678,0.4270300652951002
1776820799793192200,4.505192138671875,-0.6628875703930854,0.022364099760353563,0.5152835913527757
1776820799803234000,4.515234130859375,-0.1557861895173788,0.10555471640527248,0.3180748197313398
1776820799813276200,4.525276123046875,0.27740590553879735,0.19599603483080863,0.01712707588970661
1776820799823317000,4.53531689453125,0.4162836303532123,0.20866583905071018,-0.08333601646497846
1776820799833359000,4.545359130859375,0.2316390106201172,0.17243980267643927,-0.22151406857743858
1776820799843401200,4.555401123046875,-0.07094926697015762,0.10794891806542872,-0.2568584998115897
1776820799853443000,4.565443115234375,-0.3690472474038601,0.09204086257666348,-0.16569018228575585
1776820799863484200,4.575484130859375,-0.4669435580104589,0.08773410529345274,0.022879940328001974
1776820799873526000,4.585526123046875,-0.6079027652740479,0.04560264426767826,0.20254647938758133
1776820799883568000,4.595568115234375,-0.9480570956707001,-0.04239420361518859,0.38169294009581206
1776820799893609000,4.60560888671875,-0.8180857308894396,0.18320348101407288,0.44076384548470376
1776820799903651000,4.615651123046875,-0.10539748001694679,0.1439350082039833,0.30609014823138714
1776820799913693200,4.625693115234375,0.2006809777766466,-0.11720891384184359,0.257674784630537
1776820799923734300,4.635734375,0.2900748329758644,0.10799845629557966,0.042663814336806535
1776820799933776100,4.645776123046875,0.42776364026665686,-0.008157295231521129,0.09127762311920523
1776820799943818000,4.65581787109375,-0.05154430927634239,-0.0896814399689436,0.1599710739865899
1776820799953859000,4.665859130859375,-0.5224690458774567,0.1612422629661858,0.4061269779980182
1776820799963901000,4.67590087890625,-0.44806408549547194,0.020943565437942742,0.719524088241905
1776820799973943000,4.685943115234375,-0.6054717387348413,-0.07703004818856715,0.8241575981490313
1776820799983985200,4.695985107421875,-0.7155144142091274,-0.03615764731317758,0.807380650871247
1776820799994026200,4.706026123046875,-0.37861587073802944,-0.07801803631260991,0.6262146670341492
1776820800004068000,4.716068115234375,-0.1066039331972599,-0.04471066386401653,0.3214806095868349
1776820800014110200,4.726110107421875,0.18258418007194996,0.02081745484024286,0.13953648098409174
1776820800024151000,4.736151123046875,0.1464016905784607,0.020177403371036053,0.17462503776103258
1776820800034193200,4.746193115234375,0.0230225636690855,-0.024973259345442055,0.2898459926560521
1776820800044235000,4.756235107421875,-0.1033972461104393,-0.016599544884264468,0.25892683051824567
1776820800054277000,4.766277099609375,-0.25732582506239415,0.023861790972203013,0.26798604302555323
1776820800064318200,4.776318115234375,-0.501007740175724,0.0134916419968009,0.25809023356363175
1776820800074360000,4.786360107421875,-0.5962012215644121,0.07132087676152586,0.11682122969850897
1776820800084403000,4.79640283203125,-0.30023557698428627,0.1371935711197555,-0.0422612248852849
1776820800094444000,4.806444091796875,-0.16652444115281104,0.03670943597704172,-0.03332812297567725
1776820800104486100,4.816486083984375,-0.31233284201323985,-0.0678970397926867,0.1356686996400356
1776820800114528300,4.8265283203125,-0.29122984822988507,-0.10989099204391241,0.23696327438279985
1776820800124570000,4.836570068359375,-0.06790741505622863,-0.09636427873373031,0.20303265546932817
1776820800134611200,4.846611083984375,0.1370119309425354,-0.06029781683534383,0.1997945503309369
1776820800144653000,4.856653076171875,0.16043255401849746,-0.05126943785771727,0.28424188903868197
1776820800154695000,4.86669482421875,0.2045060890227556,0.03997004520818591,0.37169293960705396
1776820800164736000,4.876736083984375,0.05146130716800689,-0.08542129830643534,0.41426439948529004
1776820800174778000,4.886778076171875,-0.27800796308517456,0.05421937370449304,0.297371419724822
1776820800184820200,4.8968203125,-0.6357423738360405,0.09026260085776448,0.09232815508544444
1776820800194862000,4.906862060546875,-0.6762117468684912,0.1284280808620155,-0.08495148883759975
1776820800204903200,4.916903076171875,-0.4896317751586437,0.1660967172600329,-0.1312196112766862
1776820800214945000,4.926945068359375,-0.33982582909464837,0.10905015730559825,-0.05945902792364358
1776820800224987100,4.936987060546875,-0.17409575318992138,0.08996186434552073,-0.029250059881806373
1776820800235028000,4.947028076171875,0.3367027286380529,0.045634939102083445,-0.06291954364106059
1776820800245070300,4.9570703125,0.6560767213344574,-0.05763634254112839,-0.012403116107732056
1776820800255112200,4.9671123046875,0.5061743291586637,-0.0784385998122394,0.08731836409941315
1776820800265154000,4.977154052734375,0.09679331780076027,0.03639613224416971,0.15212737474888563
1776820800275195100,4.987195068359375,-0.21021569884121416,0.11776128702759742,0.15051453272476792
1776820800285237000,4.997237060546875,-0.490726000136137,0.14763678533136843,0.07450564427748323
1776820800295279000,5.007279052734375,-0.6399322267413139,0.14792568527534602,0.05927475739791989
1776820800305321200,5.0173212890625,-0.49343350552916526,0.1912269207328558,0.07112740001603961
1776820800315362300,5.0273623046875,-0.2291150451004505,0.13094313242286443,0.08179762791655958
1776820800325404200,5.037404052734375,-0.08080781316161155,0.13306976918801663,-0.023154008029028773
1776820800335446000,5.047446044921875,0.2900999674171209,0.1967924459055066,-0.22035386569164692
1776820800345487000,5.057487060546875,0.5491039548248052,0.24443463317677377,-0.3023407325699925
1776820800355529000,5.067529052734375,0.4844529112160206,0.19205781859904528,-0.10987754804044961
1776820800365571000,5.077571044921875,0.23843232402205466,0.2229771268673241,-0.027839097105339168
1776820800375613200,5.08761328125,-0.06325695890188217,0.18044278412908316,0.04119713931772857
1776820800385654300,5.097654296875,-0.3165525055348873,0.10309329472780226,0.08182352954279631
1776820800395696000,5.107696044921875,-0.6038859308481216,0.1018729591526091,-0.025043036646023392
1776820800405738200,5.11773828125,-0.581859392479062,0.08595043674707412,-0.14059519625678657
1776820800415780000,5.127780029296875,-0.38769641829431056,0.09903802798762917,-0.11610796686261891
1776820800425821200,5.1378212890625,-0.08181435985565184,0.175217816022411,-0.03565271173203364
1776820800435863000,5.147863037109375,-0.09351882617473602,0.17808124262951314,0.0025292444829829036
1776820800445905200,5.1579052734375,-0.36588498398065566,0.12718757928162813,0.1121771484860219
1776820800455947300,5.167947265625,-0.23679916986227034,0.2090095379218459,0.059268912179023026
1776820800465988000,5.177988037109375,-0.24145547123551367,0.1793055237274617,-0.0765591929735383
1776820800476030200,5.1880302734375,-0.17902268819808959,0.0815095316901803,-0.28337191953742874
1776820800486072000,5.198072021484375,-0.02224456503391266,0.20539200501181185,-0.4021491238756105
1776820800496114000,5.208114013671875,-0.09272387640476226,0.21245507526583968,-0.4892861035261303
1776820800506155000,5.218155029296875,-0.28852643449008464,0.26341259763017294,-0.4585513945771381
1776820800516197000,5.228197021484375,-0.6592535978049039,0.2246363653164357,-0.22774748307429252
1776820800526239200,5.2382392578125,-0.8332692714959382,0.14402641281448303,-0.15192889303471893
1776820800536281000,5.248281005859375,-0.7556248908013105,0.22494828080981968,-0.10141999122072011
1776820800546322200,5.258322265625,-0.6330500660121441,0.15699220430627464,-0.19237590810488908
1776820800556364000,5.268364013671875,-0.5184025270909071,0.18142185829430818,-0.4601525461634621
1776820800566406000,5.278406005859375,-0.5842565167486667,0.12899784357398747,-0.4851840750347823
1776820800576448300,5.2884482421875,-0.3506301317036152,0.21179799959659576,-0.4977273302655667
1776820800586489000,5.298489013671875,-0.23620938727557658,0.1906992435969412,-0.6865878871932626
1776820800596531200,5.30853125,-0.27408465216159816,0.15165566558390856,-0.5666955794863403
1776820800606573000,5.318572998046875,-0.2831587699770927,0.1427320621550083,-0.33687779294401404
1776820800616615200,5.328615234375,-0.24715923583507537,0.12885945801660417,-0.18687318250276147
1776820800626656000,5.338656005859375,-0.18079028239250183,0.1571357044301927,-0.1377943134918809
1776820800636698000,5.348697998046875,-0.0787011962711811,0.1310528764076531,-0.08494184422641993
1776820800646740200,5.358740234375,-0.06092763917148113,0.09375263493061065,-0.08984481383711099
1776820800656782000,5.368781982421875,-0.21111060185432431,0.02610986215993762,-0.1401517633382231
1776820800666823200,5.3788232421875,-0.14827508323490618,0.02275879816636443,-0.19534202790148555
1776820800676865000,5.388864990234375,0.06793196497559548,0.0465899017393589,-0.1886237524971366
1776820800686907100,5.3989072265625,0.1473848563969135,-0.04645969948843121,-0.049246407597512004
1776820800696949000,5.408948974609375,0.10435936914086341,-0.09051847531497478,0.01606076183244586
1776820800706990000,5.418989990234375,-0.02417816344499588,-0.02257043598741293,0.005271802923083305
1776820800717032200,5.4290322265625,-0.10663958903253078,0.02710866393893957,0.021564400750026105
1776820800727074000,5.439073974609375,0.000602057546377182,0.0609625643543899,-0.03361519628874957
1776820800737116200,5.4491162109375,0.12818214327692984,0.09355199779197573,-0.07429923498518765
1776820800747157000,5.459156982421875,0.3350274889022112,0.07931319068968296,-0.1526598011251539
1776820800757199000,5.46919921875,0.3450339191317558,0.06704626818224788,-0.21864048590250312
1776820800767241000,5.479240966796875,0.2752782458603382,0.08471768008172512,-0.2163855465825647
1776820800777283000,5.489282958984375,0.20127894366979598,0.09648147537261247,-0.18075667238384485
1776820800787324200,5.49932421875,0.060976154488325114,0.10416764596104622,-0.20024770092591643
1776820800797366000,5.509365966796875,-0.06258183611929416,0.10384937379211187,-0.18711020612902937
1776820800807408000,5.519408203125,-0.18822656987309455,0.08368950607776642,-0.11643383781611918
1776820800817450000,5.529449951171875,-0.14917875407636164,0.0864633547052741,-0.07689633880630135
1776820800827491000,5.539490966796875,-0.029432430711388586,0.11145941040441393,-0.07624540061689913
1776820800837533000,5.549532958984375,0.013045359534025192,0.10910510236322879,-0.0253475725505501
1776820800847575300,5.5595751953125,0.0764659845650196,0.116193599319458,0.05258030126057565
1776820800857617200,5.5696171875,0.15913023924827574,0.10262859982550143,0.01106383032798767
1776820800867659000,5.579658935546875,0.17450199590325355,0.07705942041352391,-0.03708389531262219
1776820800877700000,5.5897001953125,0.19390929168462753,0.09613222354352474,-0.10894903501868247
1776820800887742000,5.599741943359375,0.23059505452513693,0.10997019475996493,-0.19500998293552546
1776820800897784000,5.6097841796875,0.23075053734779358,0.13835720807164906,-0.17185564611293375
1776820800907826200,5.619826171875,0.1518950272977352,0.14922522356659174,-0.09226539204753935
1776820800917867300,5.6298671875,0.07813128742873668,0.08657485225573182,0.04124079579636454
1776820800927909000,5.6399091796875,0.028427053061127663,0.03209595083221793,0.15931914941649883
1776820800937951000,5.649950927734375,0.10125205077528952,-0.018766952051222325,0.35177042431253935
1776820800947993000,5.6599931640625,0.13123510110676287,-0.07988587601110339,0.5174003277784213
1776820800958034000,5.670033935546875,0.02914893759489059,-0.09383139925524592,0.5251781952382997
1776820800968076000,5.680075927734375,-0.174622407412529,-0.14384002339690924,0.49064080607071514
1776820800978118100,5.6901181640625,-0.3230827840864658,-0.14188991224244235,0.36687589471414683
1776820800988160300,5.70016015625,-0.3038940994918346,-0.032237697390466925,0.11305066165123134
1776820800998202000,5.7102021484375,-0.19504209510684012,0.0008266600824892521,-0.04455371973663568
1776820801008243200,5.7202431640625,-0.15607318976521492,0.02262932656779885,-0.03268390678800642
1776820801018285000,5.73028515625,-0.01967909846007824,0.019215426471084356,-0.017989684068411588
1776820801028327200,5.7403271484375,0.007670096236467361,-0.031075229482352733,-0.011268705250322818
1776820801038369300,5.750369384765625,-0.09854220729470252,-0.05290931401923298,0.016974040752463043
1776820801048410000,5.76041015625,-0.1982405988872051,-0.039974282991886136,-0.007818199470266698
1776820801058452200,5.7704521484375,-0.21120178726911543,-0.0399834892116487,-0.03219729231484234
1776820801068494000,5.780494140625,-0.14178104504048825,-0.027248510801047086,-0.04563636387418955
1776820801078536000,5.790535888671875,-0.1001683471918106,0.04035787548199296,-0.04269592650812119
1776820801088577000,5.800576904296875,-0.06842822405993938,0.043892917740345,-0.03999686014987528
1776820801098618000,5.8106181640625,-0.08820786028504371,0.06587824731618165,-0.050812159076891836
1776820801108660200,5.82066015625,-0.10428922651410102,0.06001885376349091,-0.0648591699341312
1776820801118702000,5.8307021484375,-0.15370587611198425,0.05198080099746585,-0.047381417443230746
1776820801128744200,5.840744140625,-0.18676175801753997,0.045585400871932504,-0.04032192738577723
1776820801138785000,5.850784912109375,-0.1452151111423969,0.066311231905967,-0.03365914502833038
1776820801148827100,5.8608271484375,-0.00765139153599739,0.05933116376027465,-0.004308108990080654
1776820801158869000,5.870868896484375,0.05678220992982387,0.060326458407938474,-0.04507818200215697
1776820801168911000,5.8809111328125,0.06373275972008705,0.042270577235519885,0.00713960608895868
1776820801178953200,5.890953125,0.036815526700019835,0.04290156861543655,0.05151690981276333
1776820801188994000,5.900994140625,-0.0005979658931493759,0.07858896806836128,0.02514551063980907
1776820801199036200,5.9110361328125,-0.0615039777547121,0.08996902473866938,-0.05642915870845318
1776820801209078000,5.921078125,-0.15455810902714728,0.07989668966606259,-0.0889207212621346
1776820801219120000,5.9311201171875,-0.1292564945101738,0.10570903018414973,-0.10061287608891725
1776820801229162200,5.941162353515625,0.007269114220142364,0.09896744696944951,-0.11632544553820043
1776820801239203300,5.951203369140625,0.08333762390017509,0.03819572901204228,-0.036836679085902865
1776820801249245200,5.9612451171875,-0.010959785431623459,0.025427725114673373,0.05627824246305972
1776820801259287000,5.971287109375,-0.14461422263979912,0.07018456620797514,0.04651420615464449
1776820801269329200,5.9813291015625,-0.18123744163811206,0.08293781092762946,0.0510049782352522
1776820801279370000,5.991369873046875,-0.2516904495239258,0.0742684745207429,0.03367931103352457
1776820801289412000,6.001412109375,-0.26971125938296314,0.07609452090412377,-0.006897796689718961
1776820801299454200,6.0114541015625,-0.20042904884219168,0.10968173320740461,-0.09872673354875296
1776820801309496000,6.02149609375,-0.1568447586596012,0.1424357095569372,-0.1374054237721488
1776820801319538200,6.0315380859375,-0.17663783888816834,0.12742197255939244,-0.0764125738773495
1776820801329579000,6.0415791015625,-0.24940964511036873,0.12857304229065775,0.007314853058010339
1776820801339621000,6.05162109375,-0.24666239222884176,0.172008571652323,0.02881203379072249
1776820801349663000,6.0616630859375,-0.10251812518835067,0.15531740296185015,0.020042817205935714
1776820801359705000,6.071705078125,-0.005814239236712456,0.18485782409235835,0.0016378303349018097
1776820801369747200,6.081747314453125,-0.02569207513928413,0.19535759079679846,0.07194839754272252
1776820801379788300,6.091788330078125,0.002658405554294586,0.21370134899988769,0.10294201315622777
1776820801389830100,6.101830078125,-0.006605097353458404,0.26655118791684507,0.06987279684506356
1776820801399872000,6.1118720703125,0.019093992048501967,0.1933675860233605,0.07367335817180573
1776820801409914000,6.1219140625,-0.04169043926000595,0.19611571568772196,0.09416085040532052
1776820801419956200,6.131956298828125,-0.05546995828747749,0.16194339697286486,0.09294541020095348
1776820801429997300,6.141997314453125,-0.0552776505857706,0.12479498505666851,0.11988463585712016
1776820801440039200,6.1520390625,-0.059534723508358,0.2226645537868142,0.049638585252873596
1776820801450081000,6.1620810546875,0.034405542948842044,0.254928554662317,0.0029419352034106847
1776820801460123100,6.172123046875,-0.018155249893665314,0.20130057097971438,0.08887100036889314
1776820801470165000,6.1821650390625,-0.17445406510829925,0.14832403694316743,0.053848604163341224
1776820801480207000,6.19220703125,-0.23975568158030508,0.11199483245536684,0.004952580906078219
1776820801490248200,6.202248291015625,-0.22095628856420516,0.06204992119967937,0.02363035683650523
1776820801500290000,6.2122900390625,-0.24348142410516738,-0.03297843275517225,0.08990461773294955
1776820801510332200,6.222332275390625,-0.27567396717965603,-0.01233852643892169,0.07215170156247913
1776820801520374000,6.2323740234375,-0.24434008676111696,0.01956394764780998,0.07537855465449392
1776820801530416000,6.242416015625,-0.15794365981221198,-0.00926788682192564,0.07711027381792664
1776820801540457000,6.25245703125,-0.13016834865808485,-0.014283084635436535,0.0389148370668292
1776820801550499300,6.262499267578125,-0.0491039303869009,0.012376374231278896,-0.00037252310682088133
1776820801560541200,6.272541259765625,-0.019383330383896828,0.0022829963706433773,-0.04361958069168031
1776820801570583000,6.2825830078125,-0.1625789183974266,0.019537059640884397,-0.026415567108243703
1776820801580625200,6.292625244140625,-0.22440730580091475,0.0083251991443336,-0.014082337898947297
1776820801590666000,6.302666015625,-0.19373861129283904,0.02536532740294933,-0.06116097300332039
1776820801600708000,6.3127080078125,-0.16608721877932547,0.03696940208747983,-0.002637180103175342
1776820801610750200,6.322750244140625,-0.08562251996695995,0.002833469860255718,0.03319803032260388
1776820801620792000,6.3327919921875,-0.1805249094545841,0.03513341883197427,0.04540500280372798
1776820801630834200,6.342834228515625,-0.1627916843652725,0.018534604600071905,0.10280012046750635
1776820801640875000,6.352875,-0.07809796968102455,0.0008536942198872566,0.1174284018114209
1776820801650917000,6.362917236328125,0.05818330889940262,0.009914368031919002,0.018337876451574264
1776820801660959000,6.372958984375,0.09666413846313952,0.05984846563264727,-0.11817622450403868
1776820801671001000,6.3830009765625,0.055277066063880914,0.08421689095273613,-0.13171692980695515
1776820801681043200,6.393043212890625,-0.07301262924075126,0.10471095905750989,-0.1573901541152969
1776820801691085000,6.4030849609375,-0.19467092370688915,0.12719064802154897,-0.14613624457530677
1776820801701126100,6.413126220703125,-0.2790121716916561,0.0852617238305509,-0.03934033246990293
1776820801711168000,6.42316796875,-0.18681553403139114,0.03491729186326265,-0.03459313794281334
1776820801721210000,6.433210205078125,0.052929626154899594,0.10683058155998587,-0.09887768632676452
1776820801731252200,6.443252197265625,0.1866039371073246,0.05021905202195048,-0.1078974070739001
1776820801741294000,6.453294189453125,0.1099456448405981,0.008704553850740194,-0.0640787601461634
1776820801751335200,6.463335205078125,-0.020984335839748382,0.01129383969157934,-0.06010086949113756
1776820801761377000,6.473376953125,-0.12856208250522613,-0.002272036585211754,-0.05042765327133238
1776820801771419100,6.483419189453125,-0.17091653863191603,-0.051518736443668604,-0.029239355824701486
1776820801781461000,6.4934609375,-0.26373276949524876,0.00916661840453744,0.024876557505317032
1776820801791503000,6.503503173828125,-0.25521745460629464,0.03697217856645584,0.024344021531194446
1776820801801545200,6.513545166015625,-0.19817747052311896,0.04611380866020918,-0.02874539829529822
1776820801811586000,6.5235859375,-0.15985738447904585,0.052529520921409126,-0.0956013315372169
1776820801821628200,6.533628173828125,-0.16854221071600914,0.0758421535782516,-0.1444460264660418
1776820801831670000,6.543669921875,-0.126113520309329,0.03979074311852455,-0.11750913889743388
1776820801841711900,6.5537119140625,-0.11319967820048332,0.03107756756991148,-0.028871508892998096
1776820801851754200,6.563754150390625,-0.06684358521699905,0.04237652182802558,0.041606816097162665
1776820801861796000,6.573796142578125,-0.029098668712377547,0.05901464515700936,0.04934508219901472
1776820801871837200,6.583837158203125,-0.06201426536440849,0.08308876370564103,0.05184088107012212
1776820801881879000,6.593879150390625,-0.1735270133912563,0.08230535824298858,0.09225720874108373
1776820801891921200,6.603921142578125,-0.2483691961467266,0.07541969038248061,0.11524068250879645
1776820801901963000,6.613962890625,-0.2800432683050632,0.10099588405713439,0.096068547190167
1776820801912005000,6.624005126953125,-0.26978257105350495,0.09406652318537234,0.06047803224045783
1776820801922047200,6.634047119140625,-0.24100305129289626,0.10344956081956624,-0.0014761004345491527
1776820801932088000,6.644088134765625,-0.17781038979887961,0.15489888528883455,-0.07415266612134873
1776820801942130200,6.654130126953125,-0.06044657765626907,0.15010887453332541,-0.09038169719278812
1776820801952172000,6.664172119140625,0.010121581041812896,0.1070845563210547,-0.0645196357814595
1776820801962214000,6.6742138671875,-0.0269090497136116,0.09014759617596864,0.02208937447220087
1776820801972256300,6.68425634765625,-0.0635515579342842,0.08038228122591971,0.07674147703815251
1776820801982298000,6.694298095703125,-0.0708148269355297,0.09557108252942562,0.009943776789493859
1776820801992339200,6.704339111328125,-0.10618073934912681,0.10220219110697508,-0.027960531527921557
1776820802002381000,6.714381103515625,-0.18781857359409332,0.07646876104399561,-0.043747079528868194
1776820802012423000,6.7244228515625,-0.19430793561339377,0.05639569483026862,-0.08324355240855366
1776820802022465000,6.734465087890625,-0.14204583345651625,0.03459405125826597,-0.07122512476947158
1776820802032507100,6.744507080078125,-0.09976268900036811,0.03485445576012134,-0.08075659443102777
1776820802042549200,6.75454931640625,-0.06010170974135399,0.010589344684034585,-0.05232552278190851
1776820802052590000,6.764590087890625,0.010649404308199882,-0.02675356689095497,0.02509878542125225
1776820802062632200,6.774632080078125,0.04971475576162338,-0.005289338579773903,0.062351571027375756
1776820802072674000,6.784674072265625,0.05989537351429462,0.02681231134086847,0.12425674999412148
1776820802082716700,6.794716552734375,0.01367372056543827,0.010261866295337676,0.09019899756964296
1776820802092758500,6.804758544921875,-0.12364625341296195,0.0622546499915421,0.06478296289276331
1776820802102800600,6.814800537109375,-0.17833178332448005,0.1171725273542106,0.016728541558794677
1776820802112841700,6.824841796875,-0.17928455400466917,0.14770166726112366,-0.08890588901918381
1776820802122883600,6.834883544921875,-0.10763970598578453,0.12860723682120442,-0.152493833441101
1776820802132925400,6.844925537109375,-0.07349076814651488,0.1161895076662302,-0.16918376002255825
1776820802142967800,6.8549677734375,0.08067688025832176,0.09391191714555025,-0.10458777106925844
1776820802153009700,6.865009765625,0.13073533489108086,0.08577493404969573,0.04396481393277645
1776820802163051500,6.875051513671875,0.10348258630633353,0.025249445938318966,0.17232885311525314
1776820802173092600,6.885092529296875,-0.06919687034487725,0.054460050592571495,0.21888890770561992
1776820802183134500,6.895134521484375,-0.24321722021102904,0.12834946266785263,0.09080328360572457
1776820802193176600,6.905176513671875,-0.33525136078596113,0.15425591121017931,-0.11542214002292603
1776820802203218700,6.91521875,-0.2363566867917776,0.15478548804223535,-0.28103220627717673
1776820802213260500,6.925260498046875,-0.10511340237855911,0.09154723384082317,-0.2609972070515156
1776820802223302700,6.935302734375,-0.10352467188239096,0.09556582183241843,-0.16639953613150865
1776820802233344500,6.945344482421875,-0.09239186797142028,0.08490925713106989,-0.10967347683571278
1776820802243385600,6.955385498046875,-0.12387772408127784,0.06921133726164698,0.01549625981748104
1776820802253427500,6.965427490234375,-0.26431027712225913,0.048382776505500075,0.213944400508143
1776820802263469800,6.9754697265625,-0.3622434126079082,-0.01945814918577671,0.2487552728548646
1776820802273511700,6.98551171875,-0.314333660441637,0.0005639174930751323,0.13756320814974604
1776820802283553500,6.995553466796875,-0.1765478225171566,0.04316694155335426,0.08191416696831584
1776820802293595600,7.005595703125,-0.07317161919474602,0.05140986924171447,0.0847094602426514
1776820802303637500,7.015637451171875,-0.04060498211085796,0.05165449165254831,0.04743764114249498
1776820802313678600,7.0256787109375,-0.0064256491333246225,0.10777020049765705,-0.05408891572523862
1776820802323720700,7.035720703125,0.08262976789176464,0.1513312559351325,-0.0672496452672407
1776820802333762600,7.045762451171875,0.17868483454585074,0.11891367193311451,-0.0335856414007023
1776820802343804700,7.0558046875,0.11571312232613563,0.2314772441871464,-0.0067355918653309345
1776820802353846500,7.065846435546875,0.12634323741197584,0.21760785491913556,0.10766984539572148
1776820802363888400,7.075888427734375,0.08102057912945747,0.13964125653281806,0.2349316589573398
1776820802373930800,7.0859306640625,-0.008649754923582076,0.08412497488558292,0.31561453056503086
1776820802383971600,7.0959716796875,-0.10656301666498183,0.041823564120382066,0.25374186562839895
1776820802394013700,7.106013671875,-0.12980360699892043,0.044448505796492094,0.10465367591232061
1776820802404055600,7.1160556640625,-0.14635960500240325,0.0793910782314837,-0.021118045222014187
1776820802414097700,7.12609765625,-0.07722235589027404,0.10713467907309532,-0.1560461190951988
1776820802424139500,7.136139404296875,-0.1355003573358059,0.1602148196145892,-0.1731745832243934
1776820802434181600,7.146181640625,-0.2156558440685272,0.09279153481349349,-0.07225841333996504
1776820802444223700,7.1562236328125,-0.2775461907923221,0.14644947524294255,-0.11182082759533077
1776820802454264600,7.1662646484375,-0.15152677850723265,0.09646890815198421,-0.09631276774220168
1776820802464306700,7.176306640625,-0.1646703377187252,0.021809242356568573,-0.08219481054060161
1776820802474348500,7.1863486328125,-0.27762100959420205,0.021636954529583453,-0.09321509398780763
1776820802484390400,7.196390380859375,-0.25026655420064925,-0.003670505206286907,-0.11372311755269765
1776820802494432800,7.206432861328125,-0.1577951912522316,-0.02203442941457033,-0.14406853492315858
1776820802504474600,7.216474609375,-0.05982815349698067,0.02348959665894508,-0.1222822350507602
1776820802514516500,7.2265166015625,-0.11532266170382499,-0.002680763516575098,-0.07553126099817455
1776820802524557600,7.2365576171875,-0.1653542283296585,-0.0012518997572362421,-0.06892638284042477
1776820802534599400,7.246599365234375,-0.22819383860230444,0.06623086014613509,-0.03837817290686071
1776820802544641500,7.2566416015625,-0.1492985810637474,0.04306260439604521,0.022258812754973767
1776820802554683600,7.26668359375,-0.018664368459582328,-0.003544102347642183,0.05572999746315181
1776820802564725800,7.276725830078125,0.07519991015195845,0.05216054147854447,0.06567154576294124
1776820802574767600,7.286767578125,0.07204641455709934,0.05754544938728213,0.03572323795128614
1776820802584809500,7.2968095703125,0.04492635244131088,0.05863850532099604,-0.009830014216713607
1776820802594851600,7.3068515625,-0.007767126870155334,0.09355272844433785,0.01371989779472351
1776820802604892400,7.316892333984375,-0.06316343539953231,0.09113003134205937,-0.03653396981228143
1776820802614934800,7.326934814453125,-0.10915069507062435,0.05795958314612507,-0.056823893647082145
1776820802624976600,7.3369765625,-0.23159692504405974,0.08977394055798649,0.024665873896703123
1776820802635018500,7.3470185546875,-0.2766337521225214,0.04233721273094415,0.02607961315214634
1776820802645060600,7.357060546875,-0.059814124971628184,0.05003521988764405,-0.06228004016112536
1776820802655102500,7.3671025390625,-0.00400280590057373,0.06491422458961606,-0.013881006640568374
1776820802665144600,7.37714453125,-0.05824760630726814,0.03981631595119834,0.01163414102923125
1776820802675185700,7.387185546875,-0.01763385636806488,0.12775003546997904,0.01588273838441819
1776820802685227500,7.3972275390625,-0.07637129201889038,0.09232435569316148,0.14229882183689624
1776820802695269600,7.40726953125,-0.09293079715371132,0.003115209411084652,0.1778691342487931
1776820802705311500,7.4173115234375,-0.07044540910124779,0.04118453556448221,0.15967731520440429
1776820802715353600,7.427353515625,-0.18360767790079116,0.03490706273019314,0.14792970386333762
1776820802725395700,7.437395751953125,-0.4114180701434612,0.014771744935214519,0.01299856125023216
1776820802735437600,7.4474375,-0.46485506129860876,0.0929090237133205,-0.19815529522392897
1776820802745479700,7.457479736328125,-0.5132382761955261,0.11782952995821833,-0.36484278145134447
1776820802755521500,7.467521484375,-0.5541688369989395,0.11599486187696456,-0.4759673338782042
1776820802765562600,7.477562744140625,-0.23335399784445762,0.14328545825406908,-0.5238024864383042
1776820802775604700,7.487604736328125,0.12521627920866013,0.04607961412966251,-0.37272977184150363
1776820802785646600,7.497646484375,0.40850364400148387,-0.0341581440590322,-0.04721625347677618
1776820802795688700,7.507688720703125,0.3635165012836456,-0.04676788865476846,0.2789003818802535
1776820802805730600,7.51773046875,0.20674773046970366,-0.11012860019207,0.5525304952073842
1776820802815772400,7.5277724609375,-0.08773965825140476,-0.017498393420130015,0.5408068857964128
1776820802825814800,7.537814697265625,-0.3227145352959633,0.1213775778286159,0.3228011906661093
1776820802835856600,7.547856689453125,-0.31958792770802974,0.16555968777388333,0.09709438310656696
1776820802845897700,7.557897705078125,-0.16078911237120627,0.19953093095868824,-0.16422642987612635
1776820802855939600,7.567939697265625,0.028327099817991256,0.2215606841981411,-0.2902057293465361
1776820802865981700,7.577981689453125,0.023314824613928795,0.21396029219701884,-0.2641602741923183
1776820802876023600,7.5880234375,0.0880383489370346,0.06119914958924055,-0.15023056468423454
1776820802886065700,7.598065673828125,0.12318506564199924,0.029007044906169174,-0.03504201422147453
1776820802896107800,7.608107666015625,0.04371054691076279,0.052238136759400366,0.1269389382828027
1776820802906149600,7.618149658203125,-0.06196516552567482,0.0492247802875936,0.22977343594394622
1776820802916191500,7.62819140625,-0.14222469715476035,0.05948065523356199,0.22387630419675258
1776820802926233600,7.638233642578125,-0.19881401486098765,0.11707505832910536,0.1664972243523225
1776820802936274400,7.6482744140625,-0.21553543255925178,0.17558847596570848,0.04318520786240697
1776820802946316800,7.65831689453125,-0.128489601790905,0.1345329736083746,-0.06277597045190632
1776820802956358700,7.668358642578125,-0.10378770673274994,0.13044701946899295,-0.05591993054468184
1776820802966400500,7.678400390625,-0.24320085359811783,0.1652732720479369,-0.03775646081194281
1776820802976442600,7.688442626953125,-0.23248189118504523,0.1011810313656926,-0.07445511966664344
1776820802986484500,7.698484375,-0.15755319918990135,0.05907324347645044,-0.06257135125789791
1776820802996526600,7.708526611328125,-0.05882686749994755,0.07974836723655462,-0.03058470601905137
1776820803006568700,7.718568603515625,-0.037758360508084295,0.04307020318061113,-0.016878179162554442
1776820803016610600,7.728610595703125,-0.026608605462312696,0.04648045001551509,0.03334094592463225
1776820803026652700,7.738652587890625,-0.13114450021386145,0.09574117839932442,0.06927603652831167
1776820803036693500,7.748693603515625,-0.09586626608371734,0.04955430450290441,0.04178440115377307
1776820803046735600,7.758735595703125,-0.04467968420386314,0.03594415069296956,0.04849058426152914
1776820803056777700,7.76877783203125,0.0030465280890464783,-0.008801730614900588,0.0428910837540403
1776820803066819600,7.778819580078125,0.029259996753931043,-0.020041355901211498,-0.019370653565414248
1776820803076861700,7.78886181640625,-0.0071007719159126275,-0.026237726323306558,-0.008113784883357584
1776820803086902500,7.798902587890625,-0.16106968287825582,-0.016856442254781723,-0.01790255377423018
1776820803096945000,7.80894482421875,-0.21625965518057344,-0.0005199322208762168,-0.05238393843825906
1776820803106986800,7.81898681640625,-0.2342518234670162,0.02123743381798267,-0.037735454556532204
1776820803117028600,7.829028564453125,-0.22679566224217412,-0.043079263269901275,0.07412040781956165
1776820803127070700,7.83907080078125,-0.2399865677267313,0.07155059386417269,0.06866122909821569
1776820803137111600,7.849111572265625,-0.09796060801446438,0.07354439802989363,0.05119370574038475
1776820803147153700,7.859153564453125,0.0010965630650520324,0.08108034649267792,0.040903051741980015
1776820803157195800,7.86919580078125,0.032065117302536965,0.09923384282067417,-0.015488989826478063
1776820803167237600,7.879237548828125,0.024172318226099013,0.0686706545136869,-0.029127018024027347
1776820803177279700,7.88927978515625,-0.07539514046311378,0.09631810150444507,0.03337649216204881
1776820803187321600,7.899321533203125,-0.19655249966979024,0.10007102429717779,0.0498323907919228
1776820803197363700,7.90936376953125,-0.19963760620355606,0.08206132035404443,0.02967131750117987
1776820803207405800,7.91940576171875,-0.12293722836077213,0.09161986068561673,0.010180581220053136
1776820803217447700,7.92944775390625,-0.1259013388633728,0.12602101972028612,-0.033681612588465214
1776820803227489800,7.93948974609375,-0.18516250612735746,0.08703896263614297,-0.09089315384626388
1776820803237530600,7.949530517578125,-0.17481880676746367,0.10566840591281652,-0.05937777938097715
1776820803247572700,7.95957275390625,-0.11190554673671722,0.04517682007104158,-0.027176066619344054
1776820803257614800,7.96961474609375,-0.10712883385419845,0.07431801275089382,-0.015029920947365463
1776820803267656700,7.97965673828125,-0.1264016896009445,0.10882073246389627,0.022574344977550207
1776820803277698800,7.98969873046875,-0.11381167261898517,0.11621814923882484,0.1106936136636883
1776820803287740700,7.99974072265625,-0.08855448176562786,0.13769699059724808,0.11947072129398584
1776820803297782800,8.00978271484375,-0.006514496460556984,0.1105411265157163,0.04391465464811772
1776820803307825000,8.019824951171875,0.14613397955298424,0.13878259387686848,-0.008840235994383692
1776820803317866800,8.02986669921875,0.1419441266477108,0.12182473707422613,-0.0391517510952428
1776820803327908900,8.039908935546874,0.08134206616878509,0.0926701003909111,-0.06664466511141508
1776820803337950700,8.04995068359375,-0.04425181418061256,0.10919409582093358,-0.08536507460717112
1776820803347991800,8.05999169921875,-0.1440612649321556,0.12453355764150618,-0.12424239267520606
1776820803358033700,8.07003369140625,-0.163050043040514,0.028578444230556485,-0.04443900731578469
1776820803368075800,8.08007568359375,-0.22289222506284712,0.024198183319717643,0.04600749874152243
1776820803378118000,8.090117919921875,-0.29308570522964,-0.02898001076877117,0.07248078738637267
1776820803388159700,8.10015966796875,-0.3517880695670843,-0.0003368307389318943,0.03788370392080396
1776820803398201600,8.11020166015625,-0.379737568244338,0.07845482029467821,-0.08995653058327734
1776820803408243700,8.12024365234375,-0.2830833666533232,0.056944268623739476,-0.1474002366291359
1776820803418285800,8.130285888671875,-0.2130553061813116,0.04377119105681777,-0.2129149113299325
1776820803428327700,8.14032763671875,-0.0028676643908023833,0.046804421272873875,-0.1625579852072522
1776820803438369800,8.150369873046875,0.02941781766414642,0.018741671479493377,-0.044073461939021945
1776820803448411600,8.16041162109375,-0.026216391274333,-0.0019885434687137602,0.06393905941452831
1776820803458452700,8.17045263671875,-0.04069324491620063,0.0537201920107007,0.1307309509769082
1776820803468494600,8.18049462890625,-0.010592705684900283,0.04826850247606635,0.20553466488551347
1776820803478537000,8.190536865234375,-0.07743979803323746,0.013779080636054276,0.21445666087921708
1776820803488578800,8.200578857421876,-0.10441548324227333,0.10839680796340108,0.14113913040775805
1776820803498620700,8.21062060546875,-0.09774959561228752,0.09682137485146522,0.056781077418662604
1776820803508662800,8.220662841796875,-0.11478782417476177,0.14608487971425055,-0.024166838333383203
1776820803518704600,8.23070458984375,-0.024748656809329986,0.14669175956621766,-0.1299647158447653
1776820803528746800,8.240746826171875,0.06272562850415707,0.16750877601504324,-0.21270251068826765
1776820803538788900,8.250788818359375,0.051642508953809736,0.14183569783717392,-0.12336151818744838
1776820803548830700,8.260830810546874,-0.032712767556309696,0.10127002482339739,-0.02825604387577623
1776820803558872600,8.27087255859375,-0.19870587831139563,0.12194894797578454,-0.0230765588786453
1776820803568914700,8.280914794921875,-0.2712438757777214,0.04983516727089882,0.03134611884560436
1776820803578955800,8.290955810546874,-0.29961423021554945,0.033913813909143206,-0.01849460138324648
1776820803588998000,8.300997802734376,-0.2265349654793739,0.0849754542350769,-0.05247084953673184
1776820803599039700,8.311039794921875,-0.0697042353451252,0.05808993152752518,-0.039352169038169085
1776820803609081900,8.321081787109375,0.03899462430477142,0.05709799788072705,-0.026735190984047946
1776820803619123700,8.331123779296876,0.0869534763097763,0.07539031815752387,-0.026546901870332658
1776820803629165600,8.34116552734375,0.021771102303266524,0.07161459901109338,0.03925543066542595
1776820803639208000,8.3512080078125,-0.11205167720913886,0.13395268950238823,0.007423902923054993
1776820803649249800,8.361249755859374,-0.15463877304792403,0.1018142147026956,-0.0034050957357510923
1776820803659291600,8.371291748046875,-0.10526420902609825,0.069566580440104,0.041627858885191375
1776820803669333800,8.381333740234375,-0.1061854155242443,0.022062486465275286,0.0705555914774537
1776820803679375600,8.391375732421874,-0.162003748857975,0.08739332903176546,0.04243906567022204
1776820803689417700,8.401417724609376,-0.16620061602592467,0.08108443814590573,-0.026476466982625423
1776820803699458800,8.411458740234375,-0.10337269619107246,0.04004413335770368,-0.03242978589646518
1776820803709500700,8.421500732421874,0.016031681868433952,0.01545285906717181,0.006859473973326384
1776820803719542800,8.431542724609375,0.003806406545639038,0.037735856415331365,-0.0008690379194915294
1776820803729584600,8.441584716796875,-0.052852469265460965,0.058887511646002526,0.027123532714508472
1776820803739626800,8.451626708984374,-0.1412380242049694,0.08269801082238555,-0.011351524695567786
1776820803749668900,8.4616689453125,-0.14122633376717567,0.08395224866718054,-0.03179499512426555
1776820803759710700,8.471710693359375,-0.13568039007782937,0.14466843704506754,0.034385267345793544
1776820803769752800,8.4817529296875,-0.11935820083022117,0.13754574555829166,0.14572114270208403
1776820803779794700,8.491794677734376,-0.18201427122950553,0.12225143805369734,0.2153027928471565
1776820803789836500,8.50183642578125,-0.3083089933246374,0.14102438145428894,-0.0019977131558582186
1776820803799879000,8.51187890625,-0.28439211116433144,0.18998291202113032,-0.27244861192498354
1776820803809920800,8.521920654296874,-0.19885200878381729,0.14618556360974908,-0.29655199310071767
1776820803819962600,8.531962646484375,-0.08090893544852733,0.08034867121726275,-0.22902418847922235
1776820803830003700,8.542003662109375,0.05162029712200165,0.11217939524203538,-0.09097078565973787
1776820803840045600,8.552045654296874,0.13871873486042022,0.050705374234169716,0.048887200629990545
1776820803850087700,8.562087646484375,0.14057283829450606,0.059368573161214584,0.17201686455663293
1776820803860129800,8.5721298828125,0.10432780495882034,0.011091741248220205,0.26860063125994055
1776820803870172000,8.582171875,-0.041353754651546476,0.02069207489490509,0.28002147659836335
1776820803880213800,8.5922138671875,-0.18129881643652915,0.012877017229795455,0.17966538828210904
1776820803890255600,8.602255615234375,-0.2872048304975033,0.011380495061725377,0.06078757311366498
1776820803900297700,8.612297607421874,-0.2592325354665518,0.03551423484310508,-0.028299225430376825
1776820803910339800,8.62233984375,-0.18338088340759276,-0.0070772449098527425,-0.10945035387063398
1776820803920381700,8.632381591796875,-0.15546996317505835,-0.012732494192570448,-0.13481659458903594
1776820803930423800,8.642423828125,-0.13359072432219982,-0.03676847268790007,-0.11928319936525075
1776820803940465700,8.652465576171876,-0.08529460318684577,-0.05547098120078444,-0.055647579876706
1776820803950507500,8.662507568359375,-0.0267260943621397,-0.058076779785007235,0.007709953322820365
1776820803960550000,8.6725498046875,-0.011173135921359061,-0.010070581506937742,0.07182942907186225
1776820803970590700,8.6825908203125,-0.013806407034397124,0.002872778957337141,0.1183761675229296
1776820803980632800,8.6926328125,-0.027485388296842574,0.046454292660951614,0.06091306265685707
1776820803990674700,8.7026748046875,-0.06914075624346733,0.08688494111821055,-0.04471957782283425
1776820804000716800,8.712716796875,-0.10231354252696037,0.09567015898972749,-0.16294172382783143
1776820804010758700,8.722758544921875,-0.0712421124368906,0.10573343397304415,-0.20187621544320136
1776820804020800800,8.73280078125,-0.005073650002479553,0.05105418767184019,-0.13504669528417287
1776820804030843000,8.7428427734375,-0.052390112450718875,0.018369038774818183,-0.023340415712911636
1776820804040884700,8.752884765625,-0.09939093307852745,0.00896963452771306,0.03457803170522675
1776820804050926600,8.762926513671875,-0.16900047587752343,0.01972191468849778,0.06466218605730682
1776820804060968700,8.77296875,-0.21110943281054495,0.025275895553827286,0.08913248258298262
1776820804071010800,8.7830107421875,-0.21049217769503592,0.043864860689640045,0.07087901474554091
1776820804081052700,8.793052734375,-0.1490636032640934,0.08384922668412327,0.007625471643451601
1776820804091095000,8.803094970703125,-0.09242343215346335,0.1389576581828296,-0.0693278945797123
1776820804101137000,8.813136962890624,-0.03791851950585842,0.15264321531653402,-0.08709410862317309
1776820804111179000,8.823178955078125,-0.005478139150142669,0.15323124433755875,-0.03496896725157276
1776820804121221000,8.83322119140625,-0.06655366235971451,0.1546216757826507,-0.0008594481072388589
1776820804131262000,8.843261962890624,-0.10408113672137259,0.12800766349285841,0.02154195145620033
1776820804141304000,8.853303955078125,-0.13390578162074088,0.11779650447145104,0.026225451363623142
1776820804151346000,8.863345947265625,-0.11221183620691298,0.11079305545017122,0.04092511744331568
1776820804161388000,8.873387939453124,-0.09606032735109328,0.057478521630913014,0.0464464198817499
1776820804171430100,8.88343017578125,-0.14155775767862797,0.08068287160769104,0.009112915455922483
1776820804181472000,8.893471923828125,-0.12510522004961966,0.10635814174264668,-0.034705749738123265
1776820804191514000,8.90351416015625,-0.15919219856858252,0.053312195731699465,-0.010867083913180977
1776820804201556000,8.913555908203126,-0.20532851132154464,0.038114042077958585,0.007835972588974982
1776820804211597800,8.923597900390625,-0.22944120831489562,0.031527357164025306,0.01777832460636273
1776820804221640200,8.93364013671875,-0.21679098557829857,0.037987639219313855,-0.002982851735688746
1776820804231682000,8.94368212890625,-0.14442542206943035,0.07314560797065496,-0.012360720004420726
1776820804241724000,8.953723876953125,-0.025484569868445394,0.0759900376163423,-0.0018706892427057026
1776820804251766000,8.96376611328125,0.021321020448207852,0.07347688575163483,-0.0004224083968438208
1776820804261807900,8.973807861328124,0.07789923223853111,0.11549041948616504,0.02374713335027918
1776820804271850000,8.98385009765625,0.08445406070947646,0.09972016503289341,0.006077584614325314
1776820804281892000,8.99389208984375,0.032468437406420705,0.10827508127987384,0.001971427937131375
1776820804291933200,9.00393310546875,-0.02813303855061531,0.11465294574871658,0.002438899318408221
1776820804301975000,9.01397509765625,-0.12741875768899916,0.11588657919690012,0.03342257805978879
1776820804312017000,9.024016845703125,-0.26481179690361023,0.12319719447121023,0.0349557424438186
1776820804322059000,9.03405908203125,-0.2400818447947502,0.07737228575497865,-0.029803255051467567
1776820804332101000,9.04410107421875,-0.15513561665415762,0.05308773932605981,-0.031452903688326476
1776820804342143000,9.05414306640625,-0.11426233899593352,0.08182970355525612,-0.06368966949703171
1776820804352185000,9.06418505859375,-0.09727613288164139,0.04971650932729244,-0.1085708310897462
1776820804362227000,9.07422705078125,-0.14524550628066063,0.041298809593915936,-0.05716620427872985
1776820804372268800,9.084268798828125,-0.19045301375091075,0.05121098566874861,-0.04211566066844388
1776820804382311200,9.094311279296875,-0.19668226352930068,0.061487611141800874,-0.015024550652503967
1776820804392353000,9.10435302734375,-0.09865443549752234,0.037619244298338884,-0.002075162306241691
1776820804402395100,9.11439501953125,-0.05604337426126003,0.06357756915837526,0.0020723858272656795
1776820804412437000,9.12443701171875,-0.06977671605944633,0.03969283570200205,0.013902213825378566
1776820804422478800,9.134478759765624,-0.11023089152276515,0.04545812123045325,0.0033831578985787925
1776820804432521200,9.144521240234376,0.023763152903318405,0.054728346139937635,0.03238857710324228
1776820804442563000,9.15456298828125,0.08291618361771107,0.08215820485725998,0.0767947050627321
1776820804452605000,9.16460498046875,0.1367640936613083,0.1235574060857296,0.1026266453304328
1776820804462647000,9.17464697265625,-0.022224691289663312,0.17104805605709553,0.23232511145444584
1776820804472687900,9.18468798828125,-0.2716051103055477,0.08516220897883177,0.28686440129568797
1776820804482730000,9.19472998046875,-0.4781424128949642,0.07508022929504514,0.03626803061878309
1776820804492772000,9.204772216796876,-0.5256301402568817,0.15194047387465834,-0.25492155866594984
1776820804502814000,9.21481396484375,-0.5170598803102969,0.21083207717388866,-0.5211434963621199
1776820804512856000,9.22485595703125,-0.45041503253579135,0.15040551939234137,-0.6797910666599869
1776820804522898000,9.23489794921875,-0.10813128889501095,0.17593056740164756,-0.7264931235369294
1776820804532940000,9.24493994140625,0.19998130507469175,0.19138079612031578,-0.5119412221223115
1776820804542982100,9.254982177734375,0.3282464504599571,-0.044586745223402974,-0.05437081967284903
