time,seconds_elapsed,z,y,x
1777560230908353000,0.05735302734375,-0.01347719319164753,-0.08500650525093079,-0.03454998880624771
1777560230918394000,0.06739404296875,-0.0028716865926980972,-0.0846128910779953,-0.03874712809920311
1777560230928434200,0.07743408203125,0.006069077644497156,-0.06801633536815643,-0.034813638776540756
1777560230938475000,0.08747509765625,0.007254983298480511,-0.04037937894463539,-0.0266028493642807
1777560230948515000,0.09751513671875,0.0032621060963720083,-0.022832611575722694,-0.016018114984035492
1777560230958556200,0.10755615234375,0.001181378262117505,-0.011977300979197025,-0.01050590444356203
1777560230968596000,0.117595947265625,0.00070493872044608,-0.004947354551404715,-0.006189985200762749
1777560230978637000,0.127636962890625,0.0003067961661145091,0.006173207424581051,-0.01618269830942154
1777560230988677000,0.137677001953125,0.0008564725867472589,0.008133027702569962,-0.03958602622151375
1777560230998718000,0.147718017578125,0.004475175868719816,-0.0023555660154670477,-0.06202821806073189
1777560231008758000,0.157758056640625,0.008328770287334919,0.005667206831276417,-0.07557864487171173
1777560231018799000,0.167799072265625,0.01116530317813158,0.010573015548288822,-0.08207543194293976
1777560231028839200,0.177839111328125,0.009965016506612301,0.017192302271723747,-0.0854259505867958
1777560231038880000,0.1878798828125,0.008273642510175705,0.012380503118038177,-0.08470876514911652
1777560231048920000,0.197920166015625,0.004691957030445337,0.00899988692253828,-0.08065569400787354
1777560231058961200,0.207961181640625,-0.0019294602097943425,0.016449280083179474,-0.08229433745145798
1777560231069001200,0.218001220703125,-0.002192580606788397,0.016597619280219078,-0.085158571600914
1777560231079042300,0.228042236328125,-0.00285011506639421,0.008354868739843369,-0.08871335536241531
1777560231089082000,0.23808203125,0.0011635350529104471,0.00045593318645842373,-0.0793858990073204
1777560231099123000,0.248123046875,0.003151318524032831,0.005884520709514618,-0.06773243844509125
1777560231109163000,0.2581630859375,0.0027779433876276016,0.01326706912368536,-0.06147747486829758
1777560231119204000,0.2682041015625,0.006885070353746414,0.01822454296052456,-0.06872367113828659
1777560231129245000,0.278244873046875,0.012733371928334236,0.0315435454249382,-0.07696934789419174
1777560231139285000,0.288284912109375,0.014885472133755684,0.03381495550274849,-0.08287863433361053
1777560231149326000,0.298326171875,0.011492605321109295,0.02911261096596718,-0.0846048966050148
1777560231159366100,0.3083662109375,0.0062552327290177345,0.013591175898909569,-0.08135610818862915
1777560231169407200,0.3184072265625,0.005347627215087414,0.0012207929976284504,-0.06226177513599396
1777560231179447300,0.328447265625,0.001537709147669375,0.0075572519563138485,-0.03917216882109642
1777560231189488000,0.338488037109375,-0.002843457041308284,0.00957033596932888,-0.026998594403266907
1777560231199528000,0.34852783203125,-0.0010492854053154588,0.014054033905267715,-0.017846375703811646
1777560231209569000,0.358569091796875,0.0028301412239670753,0.01495071966201067,-0.0025739450938999653
1777560231219609000,0.368609130859375,0.0062483083456754684,0.02045787125825882,0.010517622344195843
1777560231229650000,0.37864990234375,0.006392918061465025,0.02004348300397396,0.014565627090632915
1777560231239690000,0.38868994140625,0.005373992491513491,0.014554441906511784,0.016654077917337418
1777560231249731000,0.39873095703125,0.007285609841346741,0.00926114246249199,0.012344017624855042
1777560231259771100,0.408771240234375,0.005656021647155285,0.0037417414132505655,0.010870757512748241
1777560231269812200,0.418812255859375,0.0037081853952258825,0.0015211976133286953,0.01275494322180748
1777560231279853000,0.42885302734375,0.004384894855320454,-0.0009265137487091124,0.011346397921442986
1777560231289893000,0.43889306640625,0.003632285399362445,0.0017366473330184817,0.010528008453547955
1777560231299934200,0.448934326171875,0.0037827540654689074,0.0044011399149894714,0.007785485126078129
1777560231309974300,0.458974365234375,0.004228034522384405,0.006566289812326431,0.008783903904259205
1777560231320015000,0.46901513671875,0.005471996963024139,0.005481051746755838,0.00806298665702343
1777560231330055000,0.479054931640625,0.004456267226487398,0.0018578211311250925,0.0027513117529451847
1777560231340096000,0.489095947265625,0.006003564223647118,0.001517735538072884,-0.00896872766315937
1777560231350136000,0.499135986328125,0.0075726984068751335,-0.0001882854849100113,-0.0267767533659935
1777560231360177200,0.50917724609375,0.00866139866411686,-0.008156729862093925,-0.0387151725590229
1777560231370217000,0.519217041015625,0.009375392459332943,-0.005390238016843796,-0.038964975625276566
1777560231380258000,0.529258056640625,0.005931925028562546,-0.005885586142539978,-0.024690698832273483
1777560231390298000,0.539298095703125,0.00395612558349967,-0.016776317730545998,-0.006373210810124874
1777560231400339200,0.549339111328125,-0.002481799805536866,-0.010147974826395512,0.010441722348332405
1777560231410380000,0.559380126953125,-0.006965763866901398,-0.0009454221581108868,0.012626046314835548
1777560231420420000,0.569420166015625,-0.006632336415350437,0.0014596786350011826,0.004226436838507652
1777560231430461200,0.579461181640625,-0.003926298581063747,0.005712480284273624,-0.011461179703474045
1777560231440501000,0.5895009765625,-0.004264253657311201,0.008459264412522316,-0.02419694885611534
1777560231450542300,0.599542236328125,-0.005313272587954998,0.0046418895944952965,-0.03295821696519852
1777560231460582100,0.60958203125,-0.0015925703337416053,-0.0060083577409386635,-0.02407550811767578
1777560231470623000,0.619623046875,0.0009270463488064706,-0.015849003568291664,-0.0049313753843307495
1777560231480663000,0.6296630859375,0.004023769870400429,-0.008360461331903934,0.010713630355894566
1777560231490704100,0.6397041015625,0.0016463662032037973,0.00023702133330516517,0.015568040311336517
1777560231500744200,0.649744140625,0.0009094694978557527,0.007179882377386093,0.01829192228615284
1777560231510785000,0.659784912109375,-0.0004058657505083829,0.016029033809900284,0.015905464068055153
1777560231520825000,0.6698251953125,-0.0003462109307292849,0.020724719390273094,0.008727178908884525
1777560231530866200,0.6798662109375,0.00759879732504487,0.011679292656481266,0.01044225413352251
1777560231540907300,0.6899072265625,0.0073428675532341,-0.014942464418709278,0.027713652700185776
1777560231550947000,0.699947021484375,0.008626777678728104,-0.01950552500784397,0.04819362983107567
1777560231560988200,0.70998828125,0.01022680476307869,-0.013088637962937355,0.06065775454044342
1777560231571028000,0.720028076171875,0.014664163812994957,-0.008676312863826752,0.07295143604278564
1777560231581069000,0.730069091796875,0.012307532131671906,0.020617127418518066,0.07615549117326736
1777560231591109000,0.740109130859375,0.00618093041703105,0.05107197165489197,0.049074068665504456
1777560231601150000,0.75014990234375,0.007074687164276838,0.058520302176475525,0.004025900736451149
1777560231611190000,0.76018994140625,0.00875301193445921,0.052738044410943985,-0.03764884173870087
1777560231621231000,0.770231201171875,0.01236239355057478,0.028834577649831772,-0.08135637640953064
1777560231631272200,0.780272216796875,0.016750751063227654,-0.020135628059506416,-0.0888289362192154
1777560231641312000,0.79031201171875,0.013558419421315193,-0.04571289196610451,-0.06299760937690735
1777560231651353000,0.80035302734375,0.008312790654599667,-0.047397077083587646,-0.020617926493287086
1777560231661393200,0.81039306640625,0.002281796419993043,-0.04652755334973335,0.019409917294979095
1777560231671434200,0.820434326171875,0.002674612682312727,-0.03652125969529152,0.035406194627285004
1777560231681474300,0.830474365234375,0.0037526602391153574,-0.02689766138792038,0.022173479199409485
1777560231691515100,0.84051513671875,0.011813782155513763,-0.017042899504303932,0.0043808999471366405
1777560231701555000,0.850554931640625,0.02520655281841755,0.012856143526732922,-0.008448345586657524
1777560231711596000,0.860595947265625,0.03915778920054436,0.04892227053642273,-0.014465225860476494
1777560231721636000,0.870635986328125,0.03461603447794914,0.0475803017616272,-0.008068579249083996
1777560231731677000,0.880677001953125,0.027889421209692955,0.04107579588890076,-0.0011978897964581847
1777560231741718000,0.890718017578125,0.022643260657787323,0.031249266117811203,0.01781601458787918
1777560231751758000,0.900758056640625,0.02732829377055168,0.0046149916015565395,0.053532201796770096
1777560231761799200,0.910799072265625,0.032820798456668854,-0.01047581061720848,0.07082384079694748
1777560231771839200,0.920839111328125,0.03664882481098175,-0.015025555156171322,0.07798827439546585
1777560231781880000,0.930880126953125,0.03468021750450134,-0.013920342549681664,0.07814966142177582
1777560231791920000,0.940920166015625,0.03665788099169731,-0.002296976512297988,0.07365504652261734
1777560231801961200,0.950961181640625,0.048707086592912674,0.0051923650316894054,0.05697433650493622
1777560231812001000,0.9610009765625,0.05522783473134041,0.03837055712938309,0.05209622532129288
1777560231822042000,0.9710419921875,0.0579083077609539,0.06389322876930237,0.024294687435030937
1777560231832083000,0.9810830078125,0.05386003479361534,0.08040349930524826,-0.010919492691755295
1777560231842122200,0.991122314453125,0.04188433289527893,0.09068728983402252,-0.03994794934988022
1777560231852163300,1.001163330078125,0.019753731787204742,0.044791173189878464,-0.02725053019821644
1777560231862203400,1.011203369140625,0.004397944081574678,-0.02851020358502865,-0.02082299068570137
1777560231872244500,1.021244384765625,0.012064386159181595,-0.05859566852450371,-0.020374514162540436
1777560231882284300,1.0312841796875,0.00010945591930067167,-0.08979140222072601,-0.014993596822023392
1777560231892325000,1.0413251953125,-0.015150989405810833,-0.12707166373729706,-0.022412098944187164
1777560231902365200,1.051365234375,-0.0259274709969759,-0.1420852392911911,-0.03351880982518196
1777560231912406300,1.06140625,-0.03141145035624504,-0.14176006615161896,-0.04023956507444382
1777560231922447000,1.071447021484375,-0.028856148943305016,-0.12735022604465485,-0.048227984458208084
1777560231932487200,1.081487060546875,-0.026885677129030228,-0.08606164902448654,-0.05029326304793358
1777560231942528300,1.0915283203125,-0.023929834365844727,-0.041979674249887466,-0.0512261688709259
1777560231952568300,1.101568359375,-0.01570359617471695,0.012910205870866776,-0.05871817469596863
1777560231962609400,1.111609375,-0.008829444646835327,0.07807083427906036,-0.07272400707006454
1777560231972649200,1.121649169921875,-0.003605920122936368,0.10301399976015091,-0.09501492977142334
1777560231982690300,1.131690185546875,-0.006056561134755611,0.09425832331180573,-0.12440451234579086
1777560231992731400,1.1417314453125,-0.011245996691286564,0.06664560735225677,-0.14066044986248016
1777560232002771500,1.151771484375,-0.0037233654875308275,0.033962495625019073,-0.14187298715114594
1777560232012812300,1.161812255859375,0.0006181196658872068,0.016576314345002174,-0.13956615328788757
1777560232022852000,1.17185205078125,-0.0000780306218075566,0.026940004900097847,-0.1384417712688446
1777560232032893200,1.18189306640625,-0.00247594085521996,0.0315249040722847,-0.1367538571357727
1777560232042933200,1.191933349609375,-0.0035049861762672663,0.03251160308718681,-0.12885065376758575
1777560232052974300,1.201974365234375,-0.002441585995256901,0.057190585881471634,-0.11607414484024048
1777560232063014100,1.21201416015625,-0.013128851540386677,0.08558840304613113,-0.08963774144649506
1777560232073055200,1.22205517578125,-0.01426389068365097,0.10137242823839188,-0.06615052372217178
1777560232083096300,1.232096435546875,-0.0057710702531039715,0.10819331556558609,-0.06271504610776901
1777560232093136400,1.242136474609375,-0.0018570221727713943,0.09532598406076431,-0.0639510229229927
1777560232103177200,1.25217724609375,-0.00032330775866284966,0.07057137042284012,-0.06503599137067795
1777560232113217300,1.26221728515625,-0.004276770167052746,0.042335737496614456,-0.053220611065626144
1777560232123258400,1.27225830078125,-0.01600479893386364,0.03226446360349655,-0.028683310374617577
1777560232133298200,1.282298095703125,-0.030218621715903282,0.02551468089222908,0.001383512164466083
1777560232143339300,1.29233935546875,-0.03827228769659996,0.022525282576680183,0.02225417271256447
1777560232153380000,1.302380126953125,-0.03112196736037731,0.023270968347787857,0.022876286879181862
1777560232163420200,1.312420166015625,-0.019960658624768257,0.022774554789066315,0.013032977469265461
1777560232173461200,1.322461181640625,-0.010781541466712952,0.020929517224431038,-0.001722532557323575
1777560232183501300,1.332501220703125,-0.010149306617677212,0.017618142068386078,-0.016685768961906433
1777560232193542100,1.342542236328125,-0.011837484315037727,0.006669620517641306,-0.014732606709003448
1777560232203582200,1.352582275390625,-0.013768808916211128,0.007565508130937815,-0.011300591751933098
1777560232213623300,1.362623291015625,-0.014741395600140095,-0.00535455159842968,-0.010076602920889854
1777560232223664400,1.372664306640625,-0.012221246026456356,-0.012634568847715855,-0.002852511825039983
1777560232233704400,1.382704345703125,-0.008323444053530693,-0.0219135545194149,0.0035350800026208162
1777560232243745300,1.392745361328125,-0.007169229444116354,-0.02749607339501381,0.020174244418740273
1777560232253785300,1.402785400390625,-0.006764695513993502,-0.009851032868027687,0.04188193753361702
1777560232263826400,1.412826416015625,-0.00415373221039772,0.005291434936225414,0.0528498999774456
1777560232273866200,1.4228662109375,-0.0011864382540807128,0.015134744346141815,0.043653205037117004
1777560232283907000,1.432906982421875,0.005605687852948904,0.018628545105457306,0.019724436104297638
1777560232293948200,1.4429482421875,0.00980549305677414,0.029639385640621185,-0.004034422803670168
1777560232303988200,1.45298828125,0.009967679157853127,0.05452875420451164,-0.034200314432382584
1777560232314029300,1.463029296875,0.003918308764696121,0.04368516430258751,-0.06404236704111099
1777560232324069400,1.4730693359375,-0.00472444761544466,0.002855441300198436,-0.0866968110203743
1777560232334110200,1.483110107421875,-0.005563077051192522,-0.0511326938867569,-0.08298196643590927
1777560232344151300,1.4931513671875,-0.003765443339943886,-0.05832322686910629,-0.051837630569934845
1777560232354191400,1.50319140625,-0.008793225511908531,-0.030782679095864296,-0.020777184516191483
1777560232364232200,1.513232177734375,-0.009821738116443157,-0.017199493944644928,-0.007395065855234861
1777560232374272300,1.523272216796875,-0.0027166905347257853,-0.006482666824012995,-0.014765097759664059
1777560232384313300,1.533313232421875,0.003373159794136882,0.018789932131767273,-0.020232301205396652
1777560232394353200,1.543353271484375,0.004258128348737955,0.04085235670208931,-0.023970846086740494
1777560232404394200,1.553394287109375,0.006530071143060923,0.05590241402387619,-0.0384531170129776
1777560232414435000,1.56343505859375,0.010792193934321404,0.06548153609037399,-0.053287722170352936
1777560232424475100,1.57347509765625,0.013597034849226475,0.07058575004339218,-0.05194256082177162
1777560232434516200,1.58351611328125,0.009322129189968109,0.05728006735444069,-0.04785327613353729
1777560232444556300,1.593556396484375,0.006652310024946928,0.019408319145441055,-0.04132107272744179
1777560232454597000,1.60359716796875,0.00774686923250556,0.012223909609019756,-0.01062388252466917
1777560232464637200,1.61363720703125,0.005334577988833189,0.02454608865082264,0.02231995202600956
1777560232474678300,1.62367822265625,0.0025475798174738884,0.03069053404033184,0.021020596846938133
1777560232484719400,1.63371923828125,0.0021286646369844675,0.04156555235385895,0.007281082216650248
1777560232494759400,1.643759521484375,0.0034202977549284697,0.08892481029033661,-0.011789015494287014
1777560232504800300,1.65380029296875,0.001999767730012536,0.13073164224624634,-0.03332493454217911
1777560232514840300,1.66384033203125,0.009907225146889687,0.11002051085233688,-0.035416845232248306
1777560232524881400,1.67388134765625,0.018207766115665436,0.10474079102277756,-0.023620907217264175
1777560232534922200,1.683922119140625,0.015719041228294373,0.11419767886400223,-0.016578176990151405
1777560232544962000,1.693962158203125,0.012836170382797718,0.09659525007009506,-0.012794625014066696
1777560232555003100,1.704003173828125,0.009830526076257229,0.05830298736691475,-0.009825998917222023
1777560232565043200,1.714043212890625,0.007368167862296104,0.016095612198114395,-0.008450742810964584
1777560232575084300,1.724084228515625,0.007722634356468916,-0.011659585870802402,0.001412806916050613
1777560232585124400,1.734124267578125,0.0018634138396009803,-0.01200925838202238,0.012792760506272316
1777560232595165200,1.744165283203125,-0.0014367754338309169,0.0032147017773240805,0.015539011918008327
1777560232605206300,1.754206298828125,0.00018961707246489823,0.02562733180820942,-0.001740642124786973
1777560232615246300,1.764246337890625,0.004589425399899483,0.047257792204618454,-0.02713814377784729
1777560232625287200,1.774287109375,0.00905634555965662,0.06580884009599686,-0.046129945665597916
1777560232635327200,1.7843271484375,0.012887036427855492,0.09237999469041824,-0.04235491529107094
1777560232645368300,1.794368408203125,0.011090734042227268,0.09705065190792084,-0.028270520269870758
1777560232655409400,1.804409423828125,0.013325126841664314,0.08035369217395782,-0.008287491276860237
1777560232665449200,1.81444921875,0.01677951216697693,0.05019579082727432,0.01486576534807682
1777560232675490000,1.824489990234375,0.013913950882852077,0.02785506658256054,0.033483125269412994
1777560232685530000,1.834530029296875,0.011907259002327919,0.02281290479004383,0.04108512029051781
1777560232695571200,1.8445712890625,0.009222527034580708,0.03219335526227951,0.034392859786748886
1777560232705611300,1.854611328125,0.012620453722774982,0.04555869475007057,0.012228436768054962
1777560232715652400,1.86465234375,0.019572636112570763,0.057679008692502975,-0.005923402961343527
1777560232725693200,1.874693115234375,0.030585605651140213,0.09620189666748047,-0.005950034596025944
1777560232735733200,1.884733154296875,0.03001915104687214,0.13763375580310822,0.016323579475283623
1777560232745774300,1.8947744140625,0.00902545265853405,0.1348337084054947,0.010192716494202614
1777560232755814400,1.904814453125,0.0032866070978343487,0.06907095015048981,-0.03696174547076225
1777560232765855200,1.914855224609375,0.011846539564430714,0.005595833994448185,-0.0577772781252861
1777560232775896300,1.924896240234375,0.0023755396250635386,-0.03645388036966324,-0.05205201730132103
1777560232785936400,1.934936279296875,-0.011276356875896454,-0.06779102981090546,-0.026914438232779503
1777560232795977500,1.9449775390625,-0.023455524817109108,-0.07127124816179276,0.003724164329469204
1777560232806017300,1.955017333984375,-0.01985413208603859,-0.05711255595088005,0.029034847393631935
1777560232816058000,1.96505810546875,-0.019166236743330956,-0.04102679342031479,0.04339035227894783
1777560232826098200,1.97509814453125,-0.018847191706299782,-0.03663524240255356,0.04470568522810936
1777560232836140000,1.98514013671875,-0.010212424211204052,-0.03127163648605347,0.02311171032488346
1777560232846180900,1.995180908203125,-0.0089378347620368,-0.023363912478089333,0.00245117349550128
1777560232856221000,2.005220947265625,-0.011492338962852955,-0.01812068000435829,-0.009797503240406513
1777560232866262000,2.015261962890625,-0.013530190102756023,-0.026581808924674988,-0.012943761423230171
1777560232876302000,2.025302001953125,-0.013295832090079784,-0.05431810021400452,-0.011363175697624683
1777560232886343000,2.035343017578125,-0.013972008600831032,-0.07953077554702759,-0.0041313618421554565
1777560232896384000,2.045384033203125,-0.012716860510408878,-0.08154119551181793,0.008402805775403976
1777560232906424000,2.055424072265625,-0.015749135985970497,-0.05847236514091492,0.017540112137794495
1777560232916465200,2.065465087890625,-0.016267653554677963,-0.027839088812470436,0.014070012606680393
1777560232926505200,2.075505126953125,-0.012346681207418442,-0.00048602689639665186,0.0057798586785793304
1777560232936546000,2.085546142578125,-0.005757754202932119,0.02293114922940731,-0.0017725999932736158
1777560232946587100,2.095587158203125,0.0017811221769079566,0.04550463333725929,-0.006158560048788786
1777560232956627000,2.105626953125,0.003732952754944563,0.054000116884708405,-0.008975918404757977
1777560232966667800,2.115667724609375,-0.0011619371362030506,0.048594165593385696,-0.01780802570283413
1777560232976707800,2.125707763671875,-0.002014681464061141,0.04182308167219162,-0.03117602877318859
1777560232986749000,2.1357490234375,0.0011030812747776508,0.023033680394291878,-0.04021160304546356
1777560232996789000,2.1457890625,0.00045566685730591416,0.005575061310082674,-0.04204518720507622
1777560233006830000,2.155830078125,0.000758734589908272,-0.0017249294323846698,-0.04267609119415283
1777560233016871000,2.165870849609375,-0.0007542071980424225,0.0009483516332693398,-0.04009122774004936
1777560233026911000,2.175910888671875,-0.0038013961166143417,0.017288975417613983,-0.03495345637202263
1777560233036952000,2.1859521484375,-0.0003483414766378701,0.03469539433717728,-0.026319488883018494
1777560233046992100,2.1959921875,0.0033595776185393333,0.04837498813867569,-0.013742177747189999
1777560233057033000,2.206032958984375,0.003656520042568445,0.06728902459144592,-0.0013440974289551377
1777560233067074000,2.216073974609375,0.008292551152408123,0.07314451783895493,0.007285343483090401
1777560233077114000,2.226114013671875,0.007984689436852932,0.0721341148018837,0.008197476156055927
1777560233087155200,2.2361552734375,0.00472444761544466,0.06972049176692963,0.008986570872366428
1777560233097195000,2.246195068359375,-0.0005334311863407493,0.06294754147529602,0.01083001121878624
1777560233107235800,2.25623583984375,-0.00869282428175211,0.05186506360769272,0.01450171135365963
1777560233117276000,2.26627587890625,-0.008332764729857445,0.028975725173950195,0.013714480213820934
1777560233127317000,2.27631689453125,-0.014219948090612888,0.0027241474017500877,0.015060442499816418
1777560233137357800,2.28635791015625,-0.01888820342719555,-0.011049455031752586,0.02303847298026085
1777560233147398000,2.29639794921875,-0.01985945925116539,-0.009797769598662853,0.02803749404847622
1777560233157439000,2.30643896484375,-0.01871030405163765,-0.0005536712124012411,0.03832262009382248
1777560233167479000,2.31647900390625,-0.013889716938138008,0.00999297946691513,0.04850628226995468
1777560233177520000,2.32652001953125,-0.006639526691287756,0.01690548099577427,0.05516311898827553
1777560233187561000,2.33656103515625,-0.00028762139845639467,0.025969015434384346,0.05666780471801758
1777560233197601000,2.34660107421875,0.0019108180422335863,0.03525971993803978,0.06241117790341377
1777560233207642000,2.35664208984375,-0.000734766130335629,0.04198739677667618,0.0708954781293869
1777560233217682200,2.36668212890625,-0.005375590641051531,0.05319930613040924,0.0801267921924591
1777560233227723000,2.376722900390625,-0.009828129783272743,0.05475139617919922,0.09074880927801132
1777560233237764000,2.38676416015625,-0.015117433853447437,0.036616865545511246,0.09702401608228683
1777560233247804000,2.396803955078125,-0.012564261443912983,0.009127185679972172,0.10340521484613419
1777560233257845000,2.406844970703125,-0.0028607675340026617,-0.01798778958618641,0.13120675086975098
1777560233267885000,2.416885009765625,0.008902947418391705,-0.054727159440517426,0.15941496193408966
1777560233277926000,2.42692578125,0.025105087086558342,-0.05930912867188454,0.19962309300899506
1777560233287967000,2.436967041015625,0.04340153560042381,-0.0011925635626539588,0.2441287785768509
1777560233298007000,2.447007080078125,0.053940463811159134,0.05465312674641609,0.268275648355484
1777560233308048100,2.457048095703125,0.06067213416099548,0.10151757299900055,0.2681331932544708
1777560233318088000,2.467087890625,0.05343526229262352,0.15691983699798584,0.23794731497764587
1777560233328129000,2.47712890625,0.035162247717380524,0.1997852772474289,0.18855899572372437
1777560233338169000,2.487169189453125,0.03490658476948738,0.2085457444190979,0.1434415876865387
1777560233348210200,2.497210205078125,0.02268214337527752,0.21510805189609528,0.12133575230836868
1777560233358251000,2.5072509765625,0.1404961347579956,0.3229469060897827,0.3506336510181427
1777560233368290800,2.517290771484375,0.05624835938215256,0.2737402021884918,0.4411454498767853
1777560233378332000,2.527331787109375,0.081777423620224,0.2075856775045395,0.4184792637825012
1777560233388372000,2.5373720703125,0.08762838691473007,0.11728561669588089,0.38106054067611694
1777560233398413000,2.5474130859375,0.05511678010225296,-0.08230685442686081,0.38313671946525574
1777560233408454000,2.557453857421875,0.06615637987852097,-0.23849833011627197,0.4630768299102783
1777560233418494000,2.567493896484375,0.06489111483097076,-0.3132319450378418,0.5756052732467651
1777560233428535000,2.57753515625,0.0321882963180542,-0.3728574514389038,0.6474144458770752
1777560233438575000,2.5875751953125,0.006765494588762522,-0.2943570613861084,0.7051666975021362
1777560233448616000,2.597615966796875,-0.008746620267629623,-0.2781040668487549,0.7384636998176575
1777560233458657000,2.607656982421875,-0.04122573509812355,-0.24092286825180054,0.7797994017601013
1777560233468697000,2.617697021484375,-0.09464608132839203,-0.1455976814031601,0.8505433201789856
1777560233478738200,2.62773828125,-0.17753803730010986,-0.049488455057144165,0.9595584869384766
1777560233488778200,2.6377783203125,-0.2506875991821289,-0.035293009132146835,1.1030898094177246
1777560233498819000,2.647819091796875,-0.25834953784942627,0.001371527905575931,1.286186695098877
1777560233508860200,2.657860107421875,-0.18477970361709595,-0.08813172578811646,1.5324758291244507
1777560233518900000,2.66789990234375,-0.0766548290848732,-0.5563183426856995,1.9023548364639282
1777560233528940800,2.67794091796875,-0.03345755860209465,-0.5734360814094543,2.1705915927886963
1777560233538980900,2.68798095703125,-0.009754626080393791,-0.5628838539123535,2.4020347595214844
1777560233549022000,2.69802197265625,-0.00936074461787939,-0.7085332274436951,2.577622413635254
1777560233559063000,2.70806298828125,-0.029279591515660286,-0.8239820599555969,2.70477294921875
1777560233569103000,2.71810302734375,-0.07249843329191208,-0.8127467036247253,2.7915749549865723
1777560233579144000,2.72814404296875,-0.12547163665294647,-0.6957154273986816,2.798013925552368
1777560233589184000,2.73818408203125,-0.16134841740131378,-0.48176637291908264,2.7335290908813477
1777560233599225000,2.74822509765625,-0.16745078563690186,-0.30964919924736023,2.6513783931732178
1777560233609266000,2.758265869140625,-0.1709648221731186,-0.3773299753665924,2.5721514225006104
1777560233619306000,2.768305908203125,-0.15975770354270935,-0.7087917923927307,2.3868510723114014
1777560233629347000,2.77834716796875,-0.0919128805398941,-0.993889570236206,2.0997815132141113
1777560233639387000,2.788386962890625,-0.11744406819343567,-0.8235519528388977,1.8718863725662231
1777560233649428000,2.798427978515625,-0.18010371923446655,-0.5633594989776611,1.6582409143447876
1777560233659468000,2.808468017578125,-0.19716766476631165,-0.44210657477378845,1.4591012001037598
1777560233669508900,2.8185087890625,-0.17358830571174622,-0.5091719031333923,1.327880859375
1777560233679550000,2.828550048828125,-0.11533644795417786,-0.6246119141578674,1.2654979228973389
1777560233689590000,2.838590087890625,-0.05149142071604729,-0.6834800243377686,1.2480385303497314
1777560233699630800,2.848630859375,0.03441097214818001,-0.7137266397476196,1.2272003889083862
1777560233709671000,2.8586708984375,0.14217445254325867,-0.7111316323280334,1.212061882019043
1777560233719712000,2.8687119140625,0.18389420211315155,-0.5980091094970703,1.195765733718872
1777560233729753000,2.878753173828125,0.15939950942993164,-0.3996856212615967,1.1665425300598145
1777560233739793200,2.888793212890625,0.06103352829813957,-0.09251102805137634,1.134513020515442
1777560233749834000,2.898833984375,-0.07176526635885239,0.24582014977931976,1.0997337102890015
1777560233759874000,2.9088740234375,-0.1947481781244278,0.5232136845588684,1.0472278594970703
1777560233769915100,2.9189150390625,-0.2700258791446686,0.7300425171852112,0.9600834250450134
1777560233779956200,2.928956298828125,-0.27689656615257263,0.8518144488334656,0.8595136404037476
1777560233789996000,2.93899609375,-0.2402871698141098,0.8907011151313782,0.7919290065765381
1777560233800036900,2.949036865234375,-0.20247960090637207,0.8651978969573975,0.8007222414016724
1777560233810077000,2.959076904296875,-0.1762639731168747,0.6503769755363464,0.9094870686531067
1777560233820118000,2.969117919921875,-0.18659918010234833,0.37048324942588806,1.1331905126571655
1777560233830158800,2.979158935546875,-0.20088277757167816,0.13300438225269318,1.3530570268630981
1777560233840198700,2.98919873046875,-0.213264599442482,0.09388574957847595,1.4835841655731201
1777560233850239700,2.99923974609375,-0.19383764266967773,0.2638835608959198,1.452642798423767
1777560233860279800,3.00927978515625,-0.0831872969865799,0.4199935495853424,1.211255669593811
1777560233870321000,3.01932080078125,-0.07833794504404068,0.3942019045352936,1.0217262506484985
1777560233880361000,3.02936083984375,-0.0897221639752388,0.5281721949577332,0.9572117328643799
1777560233890401800,3.03940185546875,-0.011507784947752953,0.5650367736816406,0.9774927496910095
1777560233900443000,3.04944287109375,0.11202161014080048,0.3524869382381439,1.1254929304122925
1777560233910483000,3.05948291015625,0.13400493562221527,0.06741925328969955,1.3870205879211426
1777560233920523800,3.069523681640625,0.044246822595596313,-0.09654997289180756,1.798670768737793
1777560233930563800,3.079563720703125,0.29516586661338806,-0.8487550020217896,2.1345770359039307
1777560233940605000,3.08960498046875,0.560835063457489,-1.1866217851638794,2.492682695388794
1777560233950646000,3.09964599609375,0.6121917366981506,-1.6670011281967163,2.974696397781372
1777560233960685800,3.109685791015625,0.5874688029289246,-1.8833675384521484,3.4619598388671875
1777560233970726700,3.1197265625,0.40101054310798645,-2.0493462085723877,3.692653179168701
1777560233980766700,3.1297666015625,0.1397421807050705,-2.063863515853882,3.8123295307159424
1777560233990807800,3.139807861328125,-0.07155168056488037,-1.7015615701675415,3.839893102645874
1777560234000849000,3.149848876953125,-0.19984813034534454,-0.4947569966316223,3.4176480770111084
1777560234010888700,3.159888671875,-0.05307706817984581,0.14055845141410828,2.2725677490234375
1777560234020929800,3.1699296875,0.08181364089250565,0.4003303647041321,1.1005555391311646
1777560234030969900,3.179969970703125,-0.074287548661232,0.44721531867980957,0.34984880685806274
1777560234041011000,3.190010986328125,-0.18147552013397217,0.38204750418663025,0.10270880162715912
1777560234051051000,3.200051025390625,-0.1532723754644394,0.34233975410461426,0.18180495500564575
1777560234061091800,3.210091796875,-0.11480221897363663,0.2996714115142822,0.4207373857498169
1777560234071133000,3.2201328125,-0.03957697004079819,0.16712027788162231,0.6918037533760071
1777560234081173000,3.230173095703125,-0.09845653176307678,0.1751137524843216,0.9501895308494568
1777560234091213800,3.2402138671875,-0.1716308742761612,0.2702346742153168,1.1228946447372437
1777560234101253600,3.250253662109375,-0.21516290307044983,0.3397141695022583,1.2640047073364258
1777560234111294700,3.260294677734375,-0.21523934602737427,0.4227011799812317,1.4471052885055542
1777560234121335800,3.270335693359375,-0.23244735598564148,0.5086808204650879,1.7267690896987915
1777560234131375900,3.2803759765625,-0.3279309868812561,0.6991559267044067,2.1713263988494873
1777560234141416700,3.290416748046875,-0.40570008754730225,0.7769271731376648,2.720525026321411
1777560234151456800,3.300456787109375,-0.25104260444641113,0.23098315298557281,2.8899166584014893
1777560234161497900,3.310497802734375,0.05440704897046089,-0.046428751200437546,2.7304434776306152
1777560234171538000,3.320537841796875,0.293565571308136,-0.11224078387022018,2.5747923851013184
1777560234181578800,3.330578857421875,0.4816611707210541,-0.21456876397132874,2.4735727310180664
1777560234191619800,3.340619873046875,0.600502610206604,-0.3301912248134613,2.3199737071990967
1777560234201660000,3.350659912109375,0.7056069374084473,-0.2875601351261139,2.1174685955047607
1777560234211701000,3.360700927734375,0.7834221124649048,-0.2208322435617447,1.8767280578613281
1777560234221741000,3.370740966796875,0.7624526023864746,-0.1325596421957016,1.6150556802749634
1777560234231782000,3.380781982421875,0.665506899356842,0.017187509685754776,1.407965064048767
1777560234241823000,3.390822998046875,0.5242707133293152,0.10146989673376083,1.2960022687911987
1777560234251862800,3.40086279296875,0.38311782479286194,0.10159560292959213,1.2930328845977783
1777560234261904000,3.41090380859375,0.2953280508518219,0.03127376735210419,1.408121109008789
1777560234271943700,3.420943603515625,0.24844948947429657,-0.0442337729036808,1.6066914796829224
1777560234281984800,3.43098486328125,0.18549849092960358,-0.08285200595855713,1.761528491973877
1777560234292024800,3.44102490234375,0.06858944892883301,-0.03129400685429573,1.7877403497695923
1777560234302066000,3.45106591796875,-0.10746467113494873,0.07651820778846741,1.7097887992858887
1777560234312106800,3.461106689453125,-0.2729322016239166,0.18077990412712097,1.582585096359253
1777560234322146800,3.471146728515625,-0.3799838125705719,0.22798709571361542,1.5060412883758545
1777560234332188000,3.48118798828125,-0.47400137782096863,0.21328911185264587,1.4931577444076538
1777560234342228000,3.49122802734375,-0.5221625566482544,0.15288515388965607,1.4902803897857666
1777560234352269000,3.50126904296875,-0.591532826423645,0.060624729841947556,1.2117372751235962
1777560234362310000,3.511309814453125,-0.5123175978660583,0.016537964344024658,1.0510185956954956
1777560234372349700,3.521349609375,-0.36414679884910583,-0.07233944535255432,0.8604923486709595
1777560234382390800,3.531390869140625,-0.17383357882499695,-0.1528470665216446,0.6325031518936157
1777560234392430800,3.541430908203125,-0.046728089451789856,-0.11863770335912704,0.41309621930122375
1777560234402471700,3.5514716796875,-0.029157353565096855,-0.08238328993320465,0.2986689805984497
1777560234412511700,3.56151171875,-0.0056890444830060005,-0.08964066952466965,0.2671036124229431
1777560234422552800,3.571552734375,-0.048406947404146194,-0.14811569452285767,0.2796814441680908
1777560234432594000,3.581593994140625,-0.04493338614702225,-0.2358197122812271,0.3643191158771515
1777560234442634000,3.591634033203125,0.004345746245235205,-0.30978289246559143,0.3637755513191223
1777560234452674800,3.6016748046875,0.03358592465519905,-0.3394355773925781,0.3760671019554138
1777560234462715000,3.61171484375,0.06326206028461456,-0.3617302477359772,0.2562357783317566
1777560234472756000,3.621755859375,0.15141801536083221,-0.2955078184604645,0.11281895637512207
1777560234482796000,3.631796142578125,0.18985356390476227,-0.1851261854171753,0.019958527758717537
1777560234492836900,3.6418369140625,0.15589691698551178,-0.05331328883767128,0.14908188581466675
1777560234502878000,3.6518779296875,0.031932100653648376,0.013290504924952984,0.21352505683898926
1777560234512917800,3.661917724609375,0.105705127120018,0.0002719087351579219,0.20978198945522308
1777560234522958800,3.671958740234375,0.19820789992809296,-0.013814881443977356,0.17377471923828125
1777560234532999000,3.6819990234375,0.19841934740543365,0.01865890622138977,0.17281891405582428
1777560234543039700,3.692039794921875,0.12861789762973785,0.05964095890522003,0.25356996059417725
1777560234553080800,3.702080810546875,0.08184293657541275,0.13962793350219727,0.3659611940383911
1777560234563121000,3.712120849609375,0.002755572786554694,0.22076939046382904,0.4390287697315216
1777560234573161700,3.72216162109375,-0.03856123983860016,0.29628387093544006,0.4884122908115387
1777560234583201800,3.732201904296875,-0.06695293635129929,0.361074835062027,0.5394904017448425
1777560234593243000,3.742242919921875,-0.087017722427845,0.4332132041454315,0.6330981254577637
1777560234603283000,3.752282958984375,-0.14317552745342255,0.48166677355766296,0.7360671162605286
1777560234613324000,3.762323974609375,-0.2375289350748062,0.5389734506607056,0.9138243198394775
1777560234623364900,3.77236474609375,-0.25804299116134644,0.5217353701591492,1.0414658784866333
1777560234633404700,3.78240478515625,-0.21909533441066742,0.31599605083465576,1.139438271522522
1777560234643445800,3.79244580078125,-0.13137613236904144,0.055088020861148834,1.208492398262024
1777560234653485800,3.80248583984375,-0.007016630377620459,-0.11475268006324768,1.2692234516143799
1777560234663526700,3.812526611328125,0.0654359981417656,-0.2383880764245987,1.2126504182815552
1777560234673567700,3.822567626953125,-0.003578489413484931,-0.27193617820739746,1.0780483484268188
1777560234683607800,3.83260791015625,-0.10432187467813492,-0.20548312366008759,0.9213197827339172
1777560234693649000,3.84264892578125,-0.23621173202991486,-0.09106812626123428,0.8297498822212219
1777560234703689000,3.85268896484375,-0.3658416271209717,0.08712983876466751,0.8012011051177979
1777560234713729800,3.862729736328125,-0.5218656063079834,0.2619714140892029,0.8348599672317505
1777560234723769900,3.872769775390625,-0.7053675055503845,0.4062231481075287,0.8890380263328552
1777560234733811000,3.88281103515625,-0.8373620510101318,0.4016481041908264,0.9250380992889404
1777560234743851800,3.892851806640625,-0.8255431652069092,0.32604122161865234,0.8812421560287476
1777560234753891800,3.902891845703125,-0.7247377634048462,0.2605453133583069,0.7779650092124939
1777560234763933000,3.912932861328125,-0.6028743982315063,0.1322360634803772,0.6721760034561157
1777560234773972700,3.92297265625,-0.4736224114894867,0.007469101343303919,0.5686304569244385
1777560234784013800,3.933013916015625,-0.34761843085289,-0.0772300735116005,0.4944901466369629
1777560234794054000,3.943053955078125,-0.2422885298728943,-0.032646361738443375,0.446135938167572
1777560234804094700,3.9530947265625,-0.19403977692127228,0.06168227270245552,0.41725581884384155
1777560234814135800,3.9631357421875,-0.17045429348945618,0.1458757072687149,0.3782362639904022
1777560234824175900,3.97317578125,-0.15145237743854523,0.21348005533218384,0.3167688846588135
1777560234834217000,3.983217041015625,-0.1479140967130661,0.2051110714673996,0.2670498192310333
1777560234844256500,3.993256591796875,-0.11693194508552551,0.12124120444059372,0.23659390211105347
1777560234854297300,4.00329736328125,-0.07203876972198486,0.031129956245422363,0.21612244844436646
1777560234864338400,4.01333837890625,-0.04037299007177353,-0.0593181848526001,0.19476015865802765
1777560234874378500,4.02337841796875,-0.013264140114188194,-0.10826442390680313,0.15004569292068481
1777560234884419300,4.03341943359375,-0.006376939360052347,-0.12113414704799652,0.1000155434012413
1777560234894459400,4.04345947265625,-0.02081766352057457,-0.07968045026063919,0.06699128448963165
1777560234904500500,4.05350048828125,-0.04719387739896774,0.057435061782598495,0.05494820326566696
1777560234914540300,4.063540283203125,-0.16042375564575195,0.1985008418560028,0.11326290667057037
1777560234924581400,4.073581298828125,-0.31946560740470886,0.28298428654670715,0.27926039695739746
1777560234934622200,4.083622314453125,-0.42223140597343445,0.28300905227661133,0.4824784994125366
1777560234944662300,4.093662353515625,-0.4786001443862915,0.2030753493309021,0.6023311614990234
1777560234954703400,4.103703369140625,-0.43515679240226746,0.05976053699851036,0.6667990684509277
1777560234964743400,4.113743408203125,-0.31322184205055237,-0.085832878947258,0.6766301393508911
1777560234974784300,4.1237841796875,-0.17915616929531097,-0.17360055446624756,0.6337292790412903
1777560234984824300,4.13382421875,-0.0784122496843338,-0.2072887420654297,0.5590377449989319
1777560234994865400,4.143865478515625,-0.023069366812705994,-0.1967191845178604,0.48258715867996216
1777560235004906500,4.153906494140625,0.017299627885222435,-0.17514652013778687,0.41086211800575256
1777560235014946600,4.163946533203125,0.08357106149196625,-0.16277453303337097,0.33775168657302856
1777560235024987400,4.1739873046875,0.17339521646499634,-0.1583680659532547,0.30923932790756226
1777560235035027200,4.184027099609375,0.2591266334056854,-0.19446001946926117,0.3928503394126892
1777560235045068500,4.194068603515625,0.30652478337287903,-0.2779163122177124,0.6008242964744568
1777560235055108400,4.2041083984375,0.3592878580093384,-0.37055301666259766,0.8009134531021118
1777560235065149200,4.214149169921875,0.397050142288208,-0.41604727506637573,0.9157247543334961
1777560235075190300,4.224190185546875,0.3758889436721802,-0.4053086042404175,0.9474781155586243
1777560235085230300,4.234230224609375,0.2999339997768402,-0.348854660987854,0.89749675989151
1777560235095271400,4.244271484375,0.20807702839374542,-0.28104791045188904,0.8095836639404297
1777560235105311500,4.2543115234375,0.12749271094799042,-0.22682808339595795,0.6891688108444214
1777560235115352300,4.264352294921875,0.06106868013739586,-0.21087895333766937,0.5624537467956543
1777560235125393400,4.274393310546875,0.00920441746711731,-0.2294345200061798,0.48528945446014404
1777560235135433500,4.28443359375,-0.01757659763097763,-0.273689866065979,0.4593835771083832
1777560235145474600,4.294474609375,-0.019243203103542328,-0.33442723751068115,0.4887118935585022
1777560235155514400,4.304514404296875,-0.007479221560060978,-0.36740756034851074,0.5378448367118835
1777560235165555500,4.314555419921875,-0.000711064029019326,-0.37651318311691284,0.5590172410011292
1777560235175595300,4.32459521484375,-0.010518421418964863,-0.36311107873916626,0.5347819328308105
1777560235185636400,4.33463623046875,-0.05222858488559723,-0.30635592341423035,0.4650893807411194
1777560235195677200,4.34467724609375,-0.12015463411808014,-0.1886703073978424,0.3482687771320343
1777560235205717200,4.35471728515625,-0.2042708396911621,-0.07493016868829727,0.2263399213552475
1777560235215758300,4.36475830078125,-0.27130767703056335,0.0073114424012601376,0.14833541214466095
1777560235225798400,4.37479833984375,-0.2812817394733429,0.034088462591171265,0.15958194434642792
1777560235235839500,4.384839599609375,-0.2431095838546753,0.014309696853160858,0.20176880061626434
1777560235245879300,4.39487939453125,-0.20979849994182587,-0.02227254956960678,0.23387853801250458
1777560235255920400,4.40492041015625,-0.1792973130941391,-0.034331873059272766,0.2371497005224228
1777560235265961500,4.41496142578125,-0.13307948410511017,-0.01193921733647585,0.226730078458786
1777560235276001500,4.42500146484375,-0.0780271589756012,0.05541186034679413,0.20680378377437592
1777560235286042400,4.43504248046875,-0.051771849393844604,0.15975584089756012,0.15243934094905853
1777560235296082400,4.44508251953125,-0.034147851169109344,0.24748969078063965,0.09931140393018723
1777560235306123500,4.45512353515625,0.008853146806359291,0.3242092430591583,0.05427415668964386
1777560235316164600,4.46516455078125,0.043178897351026535,0.39277738332748413,0.04062439128756523
1777560235326204400,4.475204345703125,0.06399043649435043,0.42133286595344543,0.08583074808120728
1777560235336245200,4.485245361328125,0.09396937489509583,0.4168164134025574,0.15319541096687317
1777560235346285300,4.495285400390625,0.13119930028915405,0.35560524463653564,0.24421426653862
1777560235356326400,4.505326416015625,0.1652131974697113,0.27976372838020325,0.3444540500640869
1777560235366366500,4.515366455078125,0.20510227978229523,0.19826647639274597,0.3965572118759155
1777560235376407300,4.5254072265625,0.24569658935070038,0.13402757048606873,0.39024338126182556
1777560235386448400,4.535448486328125,0.2214607447385788,0.09261009097099304,0.33285731077194214
1777560235396488400,4.545488525390625,0.14643444120883942,0.0976400077342987,0.21374104917049408
1777560235406529500,4.555529541015625,0.04880082979798317,0.129464253783226,0.08269514888525009
1777560235416569300,4.5655693359375,-0.042560774832963943,0.17180797457695007,-0.011156247928738594
1777560235426610400,4.5756103515625,-0.11004500836133957,0.1897030919790268,-0.03245408087968826
1777560235436651500,4.585651611328125,-0.12862269580364227,0.1713898628950119,0.024862205609679222
1777560235446691300,4.59569140625,-0.12234321981668472,0.1346920281648636,0.08443525433540344
1777560235456732200,4.605732177734375,-0.12698271870613098,0.09725571423768997,0.11099282652139664
1777560235466772200,4.615772216796875,-0.1322733461856842,0.05609016865491867,0.11160482466220856
1777560235476813300,4.625813232421875,-0.1288653016090393,0.02238200418651104,0.06813830882310867
1777560235486853400,4.635853271484375,-0.11113903671503067,0.01654728502035141,-0.01708550937473774
1777560235496894500,4.64589453125,-0.09936227649450302,0.019873306155204773,-0.11211828142404556
1777560235506935300,4.655935302734375,-0.08059044927358627,0.016162458807229996,-0.19072547554969788
1777560235516975400,4.665975341796875,-0.04512007534503937,0.007555920630693436,-0.25150465965270996
1777560235527016400,4.676016357421875,-0.007358047645539045,0.00430207047611475,-0.2682812511920929
1777560235537056500,4.686056396484375,0.041132520884275436,-0.0036754286848008633,-0.255612850189209
1777560235547097300,4.696097412109375,0.06711272150278091,-0.02298467792570591,-0.25038614869117737
1777560235557138400,4.706138427734375,0.0635017454624176,-0.05464646592736244,-0.2552192509174347
1777560235567178500,4.716178466796875,0.05885079875588417,-0.08754636347293854,-0.2575308680534363
1777560235577219600,4.726219482421875,0.05335643142461777,-0.11264638602733612,-0.26106196641921997
1777560235587259400,4.73625927734375,0.050752125680446625,-0.13373276591300964,-0.25797003507614136
1777560235597300200,4.74630029296875,0.05361555889248848,-0.13602414727210999,-0.2596296966075897
1777560235607340300,4.75634033203125,0.05591200292110443,-0.13472159206867218,-0.2790188491344452
1777560235617381400,4.76638134765625,0.051351338624954224,-0.12969115376472473,-0.2967129051685333
1777560235627422200,4.776422119140625,0.04045341536402702,-0.13418124616146088,-0.2956409752368927
1777560235637462300,4.786462158203125,0.036024048924446106,-0.13916029036045074,-0.27669551968574524
1777560235647503400,4.79650341796875,0.04890123009681702,-0.15064384043216705,-0.22829575836658478
1777560235657543400,4.80654345703125,0.05049193650484085,-0.17741553485393524,-0.16592292487621307
1777560235667584500,4.81658447265625,0.02990303747355938,-0.20442824065685272,-0.11831652373075485
1777560235677625300,4.826625244140625,0.0062453788705170155,-0.2101963758468628,-0.09491533041000366
1777560235687665400,4.83666552734375,-0.02376391924917698,-0.1846896857023239,-0.09531400352716446
1777560235697706500,4.84670654296875,-0.053834736347198486,-0.15459702908992767,-0.09859927743673325
1777560235707746300,4.856746337890625,-0.07023873925209045,-0.13169331848621368,-0.09914815425872803
1777560235717787400,4.866787353515625,-0.07527904212474823,-0.1159292683005333,-0.09325138479471207
1777560235727828500,4.876828369140625,-0.07651661336421967,-0.10238922387361526,-0.08683689683675766
1777560235737868300,4.886868408203125,-0.08226078748703003,-0.10781700909137726,-0.07897710800170898
1777560235747909400,4.896909423828125,-0.06814496219158173,-0.12675847113132477,-0.05600973963737488
1777560235757949400,4.906949462890625,-0.054006509482860565,-0.1671924591064453,-0.024477645754814148
1777560235767990300,4.916990234375,-0.0593368262052536,-0.19567681849002838,-0.006327138282358646
1777560235778030300,4.9270302734375,-0.08085569739341736,-0.19302432239055634,-0.020292222499847412
1777560235788071400,4.937071533203125,-0.10695680975914001,-0.18219271302223206,-0.041138648986816406
1777560235798112500,4.947112548828125,-0.13430321216583252,-0.16015905141830444,-0.043727774173021317
1777560235808152300,4.95715234375,-0.17774522304534912,-0.14659476280212402,-0.04265691712498665
1777560235818193400,4.967193359375,-0.22455134987831116,-0.16695968806743622,-0.03724297508597374
1777560235828233500,4.9772333984375,-0.2772420048713684,-0.22688214480876923,-0.012571984902024269
1777560235838274600,4.987274658203125,-0.32281240820884705,-0.3076523542404175,0.014460432343184948
1777560235848315400,4.9973154296875,-0.36049559712409973,-0.3945252001285553,0.02251063473522663
1777560235858355500,5.00735546875,-0.4059448540210724,-0.4821852743625641,0.021924473345279694
1777560235868396500,5.017396484375,-0.4404114782810211,-0.5519512891769409,0.031207453459501266
1777560235878436600,5.0274365234375,-0.4648347795009613,-0.5980101823806763,0.01884426176548004
1777560235888477400,5.0374775390625,-0.48692598938941956,-0.6236351132392883,0.009719738736748695
1777560235898518500,5.0475185546875,-0.4973011314868927,-0.6606495380401611,0.011486480012536049
1777560235908558600,5.05755859375,-0.5115271806716919,-0.7341336607933044,0.017063938081264496
1777560235918599700,5.067599609375,-0.5396227240562439,-0.8549484610557556,0.028189826756715775
1777560235928639700,5.0776396484375,-0.5744388103485107,-0.9776589274406433,0.032947029918432236
1777560235938680600,5.0876806640625,-0.624864399433136,-1.0790420770645142,0.027241207659244537
1777560235948721700,5.0977216796875,-0.6701847314834595,-1.0801498889923096,-0.005081311333924532
1777560235958761700,5.10776171875,-0.7051824331283569,-0.9947980046272278,-0.0580688938498497
1777560235968802800,5.117802734375,-0.7196649312973022,-0.8791710138320923,-0.11641822010278702
1777560235978842600,5.127842529296875,-0.7076117396354675,-0.7540103793144226,-0.17356832325458527
1777560235988883500,5.137883544921875,-0.6716185808181763,-0.6313198804855347,-0.2244860976934433
1777560235998923500,5.147923583984375,-0.6174077987670898,-0.5241050124168396,-0.2640702724456787
1777560236008964600,5.157964599609375,-0.5575809478759766,-0.40568119287490845,-0.3128524422645569
1777560236019005400,5.16800537109375,-0.5163717269897461,-0.31693533062934875,-0.37507879734039307
1777560236029045500,5.17804541015625,-0.4746312201023102,-0.2510538101196289,-0.4593678414821625
1777560236039086600,5.188086669921875,-0.42199012637138367,-0.18434827029705048,-0.5393729209899902
1777560236049126700,5.198126708984375,-0.36708080768585205,-0.12254322320222855,-0.5814162492752075
1777560236059167700,5.208167724609375,-0.3101562559604645,-0.06336299329996109,-0.6127720475196838
1777560236069208600,5.21820849609375,-0.2713787853717804,-0.011684086173772812,-0.6246388554573059
1777560236079248600,5.22824853515625,-0.2310025840997696,0.03498168662190437,-0.602821409702301
1777560236089289700,5.238289794921875,-0.1640658974647522,0.08286771923303604,-0.5414536595344543
1777560236099329800,5.248329833984375,-0.10725534707307816,0.12873587012290955,-0.5230794548988342
1777560236109370600,5.25837060546875,-0.09106599539518356,0.1657242476940155,-0.5321081280708313
1777560236119411700,5.26841162109375,-0.0721687376499176,0.18561486899852753,-0.5433738231658936
1777560236129451500,5.278451416015625,-0.03841370344161987,0.18734778463840485,-0.5834093689918518
1777560236139492600,5.28849267578125,-0.01561171654611826,0.1966877579689026,-0.6443901658058167
1777560236149532700,5.29853271484375,0.0049649314023554325,0.20366230607032776,-0.6770988702774048
1777560236159573500,5.308573486328125,0.025770343840122223,0.20132511854171753,-0.6808850765228271
1777560236169614600,5.318614501953125,0.03785257413983345,0.20605356991291046,-0.6548039317131042
1777560236179654700,5.328654541015625,0.05038248002529144,0.22566933929920197,-0.6310892701148987
1777560236189695500,5.338695556640625,0.07105953246355057,0.2553441524505615,-0.5983965992927551
1777560236199735600,5.348735595703125,0.08386320620775223,0.2986586093902588,-0.5854293704032898
1777560236209776600,5.358776611328125,0.06910210847854614,0.3545013666152954,-0.6196310520172119
1777560236219817700,5.368817626953125,0.04073198512196541,0.41231513023376465,-0.6671647429466248
1777560236229857800,5.37885791015625,0.03633616864681244,0.48035141825675964,-0.6984866857528687
1777560236239898600,5.388898681640625,0.04523112624883652,0.5214093923568726,-0.7032926082611084
1777560236249938400,5.3989384765625,0.05905213579535484,0.5667068362236023,-0.7418243288993835
1777560236259979500,5.4089794921875,0.08032014220952988,0.615379273891449,-0.7817328572273254
1777560236270020600,5.4190205078125,0.11672315746545792,0.6470218896865845,-0.8019771575927734
1777560236280060400,5.429060302734375,0.14430232346057892,0.6541813015937805,-0.7925657629966736
1777560236290101500,5.4391015625,0.1583544909954071,0.6371354460716248,-0.7310283780097961
1777560236300141600,5.4491416015625,0.17652656137943268,0.5906992554664612,-0.6690763235092163
1777560236310182700,5.4591826171875,0.1863917112350464,0.5387295484542847,-0.639653742313385
1777560236320223500,5.469223388671875,0.1774885058403015,0.5104494094848633,-0.6450541019439697
1777560236330263600,5.479263671875,0.15795980393886566,0.49428030848503113,-0.6636427044868469
1777560236340304600,5.4893046875,0.14857003092765808,0.47308579087257385,-0.6676344871520996
1777560236350344700,5.4993447265625,0.1652853637933731,0.4515826404094696,-0.6738767027854919
1777560236360385500,5.509385498046875,0.1907009780406952,0.43683457374572754,-0.6075479984283447
1777560236370426600,5.519426513671875,0.2209712564945221,0.43356847763061523,-0.5370370745658875
1777560236380466700,5.529466796875,0.24529097974300385,0.41426029801368713,-0.46157535910606384
1777560236390507800,5.5395078125,0.27418363094329834,0.3834984004497528,-0.3744923770427704
1777560236400547600,5.549547607421875,0.30121123790740967,0.35283076763153076,-0.32028505206108093
1777560236410588400,5.55958837890625,0.31960755586624146,0.33115875720977783,-0.3071492910385132
1777560236420629500,5.56962939453125,0.33367863297462463,0.33154597878456116,-0.296777606010437
1777560236430669600,5.579669677734375,0.3621422350406647,0.33338701725006104,-0.25648343563079834
1777560236440710700,5.589710693359375,0.3958759605884552,0.32836881279945374,-0.2244536131620407
1777560236450750500,5.59975048828125,0.4271340072154999,0.33263787627220154,-0.19545339047908783
1777560236460791600,5.60979150390625,0.46016359329223633,0.33777323365211487,-0.15170536935329437
1777560236470832600,5.61983251953125,0.5129637122154236,0.3327617049217224,-0.09666448831558228
1777560236480872700,5.629872802734375,0.5651222467422485,0.33316144347190857,-0.044560275971889496
1777560236490913500,5.63991357421875,0.6026536226272583,0.3338562548160553,-0.011575163342058659
1777560236500953600,5.64995361328125,0.6230835318565369,0.346091628074646,0.01876995898783207
1777560236510994700,5.65999462890625,0.6079157590866089,0.37314507365226746,0.05873308703303337
1777560236521035800,5.670035888671875,0.590792715549469,0.42155683040618896,0.11698680371046066
1777560236531075600,5.68007568359375,0.59647536277771,0.4567616879940033,0.19062986969947815
1777560236541116400,5.690116455078125,0.6177827715873718,0.4515243172645569,0.2599082887172699
1777560236551156500,5.700156494140625,0.6509090662002563,0.4287116825580597,0.3109038174152374
1777560236561197600,5.710197509765625,0.6836709976196289,0.4026630222797394,0.33323922753334045
1777560236571238400,5.72023828125,0.7343056797981262,0.3937145471572876,0.3064858913421631
1777560236581278500,5.730278564453125,0.7806345820426941,0.39905205368995667,0.24513572454452515
1777560236591319600,5.740319580078125,0.796859860420227,0.407656729221344,0.17989413440227509
1777560236601360600,5.750360595703125,0.7880219221115112,0.4177993834018707,0.13591575622558594
1777560236611400700,5.760400634765625,0.7555353045463562,0.41668403148651123,0.14898255467414856
1777560236621441500,5.770441650390625,0.7340007424354553,0.3808770477771759,0.24055162072181702
1777560236631481600,5.780481689453125,0.7212830781936646,0.3110060691833496,0.3410223126411438
1777560236641522700,5.790522705078125,0.7010939121246338,0.22718095779418945,0.4089696705341339
1777560236651563500,5.8005634765625,0.6799936890602112,0.15633288025856018,0.45194190740585327
1777560236661603600,5.810603515625,0.6633039116859436,0.09478935599327087,0.4886639714241028
1777560236671644700,5.820644775390625,0.6295350790023804,0.03515931963920593,0.5256483554840088
1777560236681684500,5.8306845703125,0.5753117799758911,0.006524212192744017,0.541700005531311
1777560236691725600,5.8407255859375,0.5117578506469727,0.013295299373567104,0.5371500253677368
1777560236701766400,5.850766357421875,0.4531954526901245,0.03922916203737259,0.5234112739562988
1777560236711806500,5.860806396484375,0.39971545338630676,0.07299458235502243,0.5076850652694702
1777560236721847600,5.87084765625,0.373809814453125,0.08512528240680695,0.5097769498825073
1777560236731887600,5.8808876953125,0.3621920347213745,0.044310204684734344,0.5349925756454468
1777560236741928700,5.8909287109375,0.355726420879364,-0.06878412514925003,0.6055876612663269
1777560236751969500,5.900969482421875,0.35305872559547424,-0.21599355340003967,0.709897518157959
1777560236762009600,5.911009521484375,0.33816686272621155,-0.36773353815078735,0.8332434296607971
1777560236772050700,5.92105078125,0.3136301040649414,-0.4740266799926758,0.9345461130142212
1777560236782091500,5.931091552734375,0.27363288402557373,-0.4983176589012146,0.9786421656608582
1777560236792131600,5.941131591796875,0.21106404066085815,-0.4428599774837494,0.9360941648483276
1777560236802172700,5.951172607421875,0.11442085355520248,-0.3547668755054474,0.8250294327735901
1777560236812212700,5.961212646484375,0.021315142512321472,-0.27508190274238586,0.7128464579582214
1777560236822253800,5.97125390625,-0.028327777981758118,-0.2303791493177414,0.660355806350708
1777560236832294700,5.981294677734375,-0.03165779635310173,-0.23578137159347534,0.6734082102775574
1777560236842335000,5.9913349609375,-0.0054456316865980625,-0.2865244448184967,0.749858558177948
1777560236852376000,6.0013759765625,0.013126454316079617,-0.3456612527370453,0.8251761794090271
1777560236862416100,6.011416015625,0.013279053382575512,-0.4012209177017212,0.8820285797119141
1777560236872457000,6.02145703125,-0.01823972351849079,-0.41889792680740356,0.8884853720664978
1777560236882498000,6.031498046875,-0.0722973644733429,-0.4042385518550873,0.8409884572029114
1777560236892538000,6.0415380859375,-0.12032454460859299,-0.3498759865760803,0.7543052434921265
1777560236902579000,6.051578857421875,-0.1668078899383545,-0.2833728492259979,0.6549405455589294
1777560236912620000,6.0616201171875,-0.20031045377254486,-0.23381835222244263,0.585110604763031
1777560236922660000,6.07166015625,-0.21872222423553467,-0.2183552384376526,0.5505725741386414
1777560236932701200,6.081701171875,-0.23883014917373657,-0.24093379080295563,0.5532299280166626
1777560236942741000,6.091740966796875,-0.26557254791259766,-0.2987414300441742,0.5897985696792603
1777560236952781800,6.10178173828125,-0.30412793159484863,-0.367983877658844,0.6168112754821777
1777560236962823000,6.111822998046875,-0.36304157972335815,-0.408814400434494,0.5930476188659668
1777560236972863000,6.121863037109375,-0.42665916681289673,-0.42436298727989197,0.521675169467926
1777560236982904000,6.131904052734375,-0.44915276765823364,-0.3894108831882477,0.3762114346027374
1777560236992944000,6.141944091796875,-0.46527183055877686,-0.3263845145702362,0.1838499903678894
1777560237002985000,6.15198486328125,-0.4723387658596039,-0.27790483832359314,0.053102098405361176
1777560237013026000,6.162026123046875,-0.4478936195373535,-0.26745620369911194,0.00004660531703848392
1777560237023066000,6.172066162109375,-0.4355591833591461,-0.28998416662216187,0.02526647411286831
1777560237033107000,6.18210693359375,-0.432501882314682,-0.31456831097602844,0.08563128113746643
1777560237043148000,6.19214794921875,-0.42188358306884766,-0.348373681306839,0.16679032146930695
1777560237053188000,6.20218798828125,-0.4109254777431488,-0.3810826241970062,0.21543961763381958
1777560237063229200,6.212229248046875,-0.40719759464263916,-0.37858620285987854,0.18581274151802063
1777560237073269000,6.22226904296875,-0.40229925513267517,-0.3240012526512146,0.07719837874174118
1777560237083310000,6.23231005859375,-0.39960891008377075,-0.2530527710914612,-0.05229702591896057
1777560237093351200,6.24235107421875,-0.38774293661117554,-0.1926104575395584,-0.1574207842350006
1777560237103391000,6.252390869140625,-0.3578265905380249,-0.16096438467502594,-0.22778628766536713
1777560237113431800,6.262431884765625,-0.32661300897598267,-0.16971127688884735,-0.26335227489471436
1777560237123473000,6.272472900390625,-0.28775668144226074,-0.18705616891384125,-0.24144937098026276
1777560237133513000,6.282512939453125,-0.2491363137960434,-0.18193624913692474,-0.1734793782234192
1777560237143554000,6.292553955078125,-0.2117854803800583,-0.16497457027435303,-0.09902298450469971
1777560237153594000,6.302593994140625,-0.17493478953838348,-0.1473175436258316,-0.048939578235149384
1777560237163635000,6.312635009765625,-0.13695119321346283,-0.11987127363681793,-0.042575955390930176
1777560237173676000,6.322676025390625,-0.09533770382404327,-0.08526696264743805,-0.0792977511882782
1777560237183716000,6.332716064453125,-0.06808291375637054,-0.05120033770799637,-0.13312476873397827
1777560237193757200,6.342757080078125,-0.044609811156988144,-0.03897163271903992,-0.16420066356658936
1777560237203798000,6.352798095703125,-0.03207084909081459,-0.024225711822509766,-0.18832170963287354
1777560237213838000,6.362838134765625,-0.03098294883966446,0.01050350721925497,-0.20657607913017273
1777560237223879200,6.372879150390625,-0.02652961201965809,0.043000198900699615,-0.18991214036941528
1777560237233919000,6.3829189453125,-0.02286749891936779,0.08033878356218338,-0.16274496912956238
1777560237243959800,6.392959716796875,-0.013095828704535961,0.10684868693351746,-0.12564900517463684
1777560237254001000,6.4030009765625,0.0023635553661733866,0.1350635439157486,-0.10646199434995651
1777560237264041000,6.413041015625,0.023196665570139885,0.16145041584968567,-0.09740617871284485
1777560237274082000,6.42308203125,0.04465668275952339,0.1844705045223236,-0.09520081430673599
1777560237284123000,6.433122802734375,0.05447016656398773,0.20567752420902252,-0.0951283797621727
1777560237294163000,6.443162841796875,0.05588243901729584,0.20918864011764526,-0.08980924636125565
1777560237304204000,6.4532041015625,0.05590933933854103,0.20707914233207703,-0.0823526605963707
1777560237314244000,6.463244140625,0.04977820813655853,0.19869817793369293,-0.07259484380483627
1777560237324285000,6.473284912109375,0.03908934444189072,0.1816350370645523,-0.06729355454444885
1777560237334326000,6.483325927734375,0.02815254218876362,0.18049068748950958,-0.06766080111265182
1777560237344366000,6.493365966796875,0.018202172592282295,0.195293590426445,-0.07678079605102539
1777560237354407200,6.5034072265625,0.01085690874606371,0.20203912258148193,-0.06313689053058624
1777560237364448000,6.513447998046875,0.010868626646697521,0.1998838186264038,-0.03826776146888733
1777560237374488000,6.523488037109375,0.01906583644449711,0.19296333193778992,-0.017221864312887192
1777560237384529200,6.533529052734375,0.025615613907575607,0.18280044198036194,-0.00003302319601061754
1777560237394569000,6.54356884765625,0.029870280995965004,0.16923590004444122,0.007819307036697865
1777560237404609800,6.55360986328125,0.03117256611585617,0.15474644303321838,0.006625145673751831
1777560237414651000,6.56365087890625,0.025832129642367363,0.1418924182653427,-0.0012120045721530914
1777560237424691000,6.57369091796875,0.014162157662212849,0.13196095824241638,-0.015916915610432625
1777560237434732000,6.58373193359375,0.008927715010941029,0.11726084351539612,-0.02665877528488636
1777560237444772900,6.59377294921875,-0.002615756820887327,0.10041182488203049,-0.0351281613111496
1777560237454813000,6.60381298828125,-0.004718588665127754,0.09281516075134277,-0.035891421139240265
1777560237464854000,6.61385400390625,-0.005798234138637781,0.09281249344348907,-0.02449841797351837
1777560237474895000,6.62389501953125,-0.0020873856265097857,0.0815499871969223,0.00705711031332612
1777560237484935200,6.63393505859375,0.004552674014121294,0.057370882481336594,0.03514520451426506
1777560237494976000,6.64397607421875,0.007315703667700291,0.04500342905521393,0.03925579413771629
1777560237505016000,6.65401611328125,0.0037822213489562273,0.05522703751921654,0.02863750420510769
1777560237515057200,6.66405712890625,0.003605387406423688,0.06927467882633209,0.013454290106892586
1777560237525098000,6.674097900390625,0.0001930791768245399,0.08031880855560303,0.0010120011866092682
1777560237535137800,6.6841376953125,-0.0031968585681170225,0.08074118196964264,-0.0021491709630936384
1777560237545179100,6.69417919921875,-0.00401737866923213,0.0728992372751236,0.0020764668006449938
1777560237555220200,6.70422021484375,0.0032320122700184584,0.04916168749332428,0.006849916651844978
1777560237565260000,6.714260009765625,0.014446849934756756,0.025353293865919113,0.005615807604044676
1777560237575300900,6.72430078125,0.02335192821919918,0.0119091235101223,0.007526625879108906
1777560237585342000,6.734342041015625,0.027774373069405556,0.010783405043184757,0.008587629534304142
1777560237595382000,6.744382080078125,0.02768781967461109,0.017580591142177582,0.011708587408065796
1777560237605422800,6.7544228515625,0.024112526327371597,0.03344637528061867,0.0051928977482020855
1777560237615463000,6.764462890625,0.020244019106030464,0.04512140527367592,0.0010759170399978757
1777560237625504000,6.77450390625,0.019063705578446388,0.056482184678316116,-0.01101510040462017
1777560237635545000,6.784545166015625,0.016707606613636017,0.060199689120054245,-0.01227291114628315
1777560237645585200,6.794585205078125,0.013055081479251385,0.05354684963822365,-0.008273376151919365
1777560237655626000,6.8046259765625,0.014719557948410511,0.04104996472597122,0.0015478292480111122
1777560237665667000,6.8146669921875,0.016979515552520752,0.029229789972305298,0.014256966300308704
1777560237675707100,6.82470703125,0.014058294706046581,0.03157949820160866,0.013591175898909569
1777560237685748200,6.834748291015625,0.004692756105214357,0.03608716279268265,0.0082115912809968
1777560237695789000,6.8447890625,-0.0002993392990902066,0.036984916776418686,0.002198972040787339
1777560237705828900,6.854828857421875,0.0012112056137993932,0.03728558495640755,-0.0049561429768800735
1777560237715870000,6.864869873046875,0.005077316425740719,0.026166357100009918,-0.0025939189363271
1777560237725910000,6.874909912109375,0.006460295990109444,0.010012952610850334,0.011810320429503918
1777560237735950800,6.884950927734375,0.008776447735726833,-0.0025952504947781563,0.017845043912529945
1777560237745992000,6.894991943359375,0.009014533832669258,-0.02239132486283779,0.028863605111837387
1777560237756032000,6.905031982421875,0.011264638975262642,-0.03309377282857895,0.02359267696738243
1777560237766073000,6.915072998046875,0.006037652492523193,-0.028922993689775467,0.00899562519043684
1777560237776114000,6.925114013671875,0.005474926438182592,-0.015727831050753593,-0.0270697008818388
1777560237786154000,6.935154052734375,0.003709783311933279,-0.0004854942671954632,-0.05631626769900322
1777560237796195000,6.945195068359375,0.005809685681015253,0.0006998787284828722,-0.06780381500720978
1777560237806236000,6.95523583984375,0.007789745926856995,-0.015223960392177105,-0.06755773723125458
1777560237816276000,6.96527587890625,0.01540691964328289,-0.030112095177173615,-0.06972102075815201
1777560237826317000,6.975317138671875,0.015137407928705215,-0.047438088804483414,-0.07295463234186172
1777560237836358100,6.985358154296875,0.018638398498296738,-0.06734228879213333,-0.08413485437631607
1777560237846397400,6.9953974609375,0.019290607422590256,-0.0668000727891922,-0.12821762263774872
1777560237856438300,7.005438232421875,0.018641594797372818,-0.05163736268877983,-0.18970201909542084
1777560237866478300,7.015478271484375,0.018814699724316597,-0.048345163464546204,-0.22173559665679932
1777560237876519400,7.02551953125,0.019413644447922707,-0.05657273158431053,-0.2236325591802597
1777560237886560500,7.035560546875,0.012827381491661072,-0.06866827607154846,-0.1885235756635666
1777560237896600300,7.045600341796875,0.01461729221045971,-0.08046607673168182,-0.13736984133720398
1777560237906641200,7.05564111328125,0.007648598402738571,-0.08231644332408905,-0.12062522023916245
1777560237916682200,7.06568212890625,0.0019094864837825298,-0.07220202684402466,-0.1080913171172142
1777560237926722300,7.075722412109375,0.002621349412947893,-0.05551891773939133,-0.09832603484392166
1777560237936763400,7.085763427734375,0.0043832967057824135,-0.02598978951573372,-0.11072198301553726
1777560237946804200,7.09580419921875,0.00860334187746048,0.0065252771601080894,-0.12649056315422058
1777560237956844300,7.10584423828125,0.01865491084754467,0.01763172447681427,-0.13414742052555084
1777560237966885400,7.115885498046875,0.026226811110973358,0.0062246061861515045,-0.12797953188419342
1777560237976926200,7.12592626953125,0.022310364991426468,-0.02665211632847786,-0.10926710069179535
1777560237986966300,7.13596630859375,0.024807877838611603,-0.0642426386475563,-0.06610897928476334
1777560237997007400,7.14600732421875,0.020615262910723686,-0.08452234417200089,-0.029229523614048958
1777560238007047400,7.15604736328125,0.014857509173452854,-0.07428301870822906,-0.019767312332987785
1777560238017088500,7.166088623046875,0.008711466565728188,-0.03664003685116768,-0.04392857477068901
1777560238027129300,7.17612939453125,0.004581968765705824,0.009855826385319233,-0.09927305579185486
1777560238037169400,7.18616943359375,0.0010362359462305903,0.05734052136540413,-0.1855677366256714
1777560238047210500,7.19621044921875,-0.004481833893805742,0.08420755714178085,-0.2567654848098755
1777560238057251300,7.206251220703125,0.001050350721925497,0.08406081795692444,-0.28481176495552063
1777560238067291100,7.216291015625,0.017520137131214142,0.06288602203130722,-0.28267112374305725
1777560238077332200,7.226332275390625,0.03800703585147858,0.03358006477355957,-0.24817359447479248
1777560238087373300,7.236373291015625,0.05445951223373413,0.006178267300128937,-0.2146608978509903
1777560238097413400,7.246413330078125,0.06460881978273392,-0.0067966533824801445,-0.20490014553070068
1777560238107454200,7.2564541015625,0.061357367783784866,-0.0012668657582253218,-0.22437557578086853
1777560238117495300,7.266495361328125,0.05615461617708206,0.0033569145016372204,-0.2853369414806366
1777560238127535400,7.276535400390625,0.055563658475875854,0.03678411245346069,-0.34679657220840454
1777560238137576400,7.286576416015625,0.03230121359229088,0.06708742678165436,-0.4307956099510193
1777560238147617300,7.2966171875,0.010997523553669453,0.0875876396894455,-0.517260730266571
1777560238157657300,7.3066572265625,0.024286163970828056,0.08180538564920425,-0.6343319416046143
1777560238167698400,7.316698486328125,0.051591288298368454,0.06858065724372864,-0.8149035573005676
1777560238177739300,7.3267392578125,0.09041458368301392,0.09766104817390442,-1.0647687911987305
1777560238187779300,7.336779296875,0.10041235387325287,0.2070847451686859,-1.4083751440048218
1777560238197820400,7.3468203125,0.013907293789088726,0.3679591119289398,-1.8209768533706665
1777560238207861500,7.356861572265625,-0.15176156163215637,0.533038854598999,-2.310239553451538
1777560238217901300,7.3669013671875,-0.35208266973495483,0.6742729544639587,-2.707040548324585
1777560238227942100,7.376942138671875,-0.6019631028175354,0.7579718828201294,-3.025338649749756
1777560238237983200,7.386983154296875,-0.858127236366272,0.8250571489334106,-3.3712148666381836
1777560238248023300,7.397023193359375,-1.0010766983032227,0.8342314958572388,-3.607200860977173
1777560238258064400,7.407064453125,-1.0056333541870117,0.7857512831687927,-3.6722872257232666
1777560238268105200,7.417105224609375,-1.0212609767913818,0.6474543809890747,-3.6195807456970215
1777560238278145300,7.427145263671875,-1.0921962261199951,0.49093911051750183,-3.512047290802002
1777560238288186400,7.437186279296875,-1.1146827936172485,0.4777234196662903,-3.42940092086792
1777560238298226400,7.447226318359375,-0.9896530508995056,0.4717520773410797,-3.3137335777282715
1777560238308267300,7.457267333984375,-0.8140900135040283,0.3926045298576355,-3.192286491394043
1777560238318308400,7.467308349609375,-0.5963523387908936,0.29425132274627686,-3.1079037189483643
1777560238328348400,7.477348388671875,-0.36745232343673706,0.21120545268058777,-3.157088041305542
1777560238338389500,7.487389404296875,-0.14282479882240295,0.13411572575569153,-3.418998956680298
1777560238348430300,7.497430419921875,0.16856957972049713,-0.0007499461644329131,-3.8507492542266846
1777560238358470400,7.507470458984375,0.5002852082252502,-0.23511584103107452,-4.412620544433594
1777560238368511500,7.517511474609375,0.5480293035507202,-0.6690899133682251,-5.481147766113281
1777560238378552300,7.52755224609375,0.3879205584526062,-0.49504515528678894,-7.06644344329834
1777560238388592000,7.537592041015625,0.457797646522522,-0.20960702002048492,-7.943549156188965
1777560238398633200,7.54763330078125,0.829807698726654,-0.49770140647888184,-8.429665565490723
1777560238408674300,7.55767431640625,1.2856225967407227,-0.7757082581520081,-8.559938430786133
1777560238418714400,7.56771435546875,1.3139474391937256,-0.8450614809989929,-8.297603607177734
1777560238428755200,7.577755126953125,1.0068320035934448,-0.6972323656082153,-7.696690559387207
1777560238438796300,7.58779638671875,0.5650926828384399,-0.2089071422815323,-6.777565002441406
1777560238448836400,7.59783642578125,0.10971664637327194,0.23563969135284424,-5.5973968505859375
1777560238458877400,7.60787744140625,-0.2742597758769989,0.6037679314613342,-4.302581310272217
1777560238468918300,7.617918212890625,-0.5910118818283081,1.0210272073745728,-3.041374921798706
1777560238478958300,7.627958251953125,-0.8508583903312683,1.595731496810913,-2.0361249446868896
1777560238488999400,7.63799951171875,-1.0191919803619385,2.0371789932250977,-1.4606757164001465
1777560238499040300,7.648040283203125,-1.0283963680267334,2.309032917022705,-1.3467211723327637
1777560238509080300,7.658080322265625,-0.9681141972541809,2.3862619400024414,-1.6334402561187744
1777560238519121400,7.668121337890625,-0.9367570281028748,2.3084192276000977,-2.2381203174591064
1777560238529162500,7.67816259765625,-0.8559434413909912,2.1026697158813477,-2.9722094535827637
1777560238539202600,7.68820263671875,-0.74881911277771,1.938372254371643,-3.704507350921631
1777560238549243400,7.698243408203125,-0.6307086944580078,1.9931987524032593,-4.327373027801514
1777560238559284500,7.708284423828125,-0.5937613248825073,1.7865147590637207,-4.723927021026611
1777560239648699100,8.79769921875,-0.03797241672873497,-0.11688267439603806,0.046966176480054855
1777560239658740000,8.807739990234374,-0.023636354133486748,-0.1083080992102623,0.002775546396151185
1777560239668781000,8.817781005859375,-0.0023435817565768957,-0.11226475238800049,-0.04212801158428192
1777560239678822100,8.827822265625,-0.008325307630002499,-0.0730302706360817,-0.06434863060712814
1777560239688862200,8.8378623046875,-0.014643125236034393,-0.0570819266140461,-0.0538424588739872
1777560239698903000,8.847903076171875,-0.01697711832821369,-0.08910910040140152,-0.03710901737213135
1777560239708944100,8.857944091796876,-0.021348431706428528,-0.10969880223274231,-0.0246648658066988
1777560239718984200,8.867984130859375,-0.029028987511992455,-0.14367753267288208,-0.0112236263230443
1777560239729025000,8.87802490234375,-0.03154034912586212,-0.14792421460151672,0.015253255143761635
1777560239739066000,8.888066162109375,-0.03201545774936676,-0.09973085671663284,0.047509461641311646
1777560239749107200,8.898107177734374,-0.028419656679034233,-0.04176662117242813,0.07018361240625381
1777560239759147300,8.908147216796875,-0.02015640027821064,-0.0018258632626384497,0.08031801134347916
1777560239769188000,8.91818798828125,-0.027036145329475403,0.017427725717425346,0.08761906623840332
1777560239779229200,8.928229248046875,-0.04157380759716034,0.011391671374440193,0.09875506907701492
1777560239789269200,8.938269287109375,-0.03768505901098251,-0.0001155811914941296,0.10609394311904907
1777560239799310000,8.94831005859375,-0.04800108075141907,-0.0036282907240092754,0.07185102254152298
1777560239809351200,8.95835107421875,-0.05103735253214836,-0.0059566921554505825,0.03123355284333229
1777560239819392300,8.968392333984376,-0.05564941465854645,-0.026515230536460876,-0.006292516831308603
1777560239829432000,8.97843212890625,-0.05771016702055931,-0.062137674540281296,-0.03205780312418938
1777560239839472400,8.988472412109376,-0.05192338675260544,-0.0733644962310791,-0.04386812075972557
1777560239849513200,8.99851318359375,-0.04849083721637726,-0.09062124788761139,-0.03912556543946266
1777560239859553300,9.00855322265625,-0.036858148872852325,-0.1099853590130806,-0.015182947739958763
1777560239869594400,9.018594482421875,-0.031324099749326706,-0.1097312942147255,0.01356454472988844
1777560239879635500,9.028635498046874,-0.03333425521850586,-0.10702499002218246,0.02863643877208233
1777560239889676300,9.03867626953125,-0.026253174990415573,-0.08569173514842987,0.02435993403196335
1777560239899716400,9.04871630859375,-0.019601397216320038,-0.04103052243590355,0.004444282967597246
1777560239909757400,9.05875732421875,-0.03325329348444939,-0.040164995938539505,-0.02359560690820217
1777560239919798300,9.06879833984375,-0.027770644053816795,-0.0503835454583168,-0.015515309758484364
1777560239929838300,9.07883837890625,-0.011844408698379993,-0.03663337975740433,-0.02081846259534359
1777560239939879400,9.08887939453125,-0.019293004646897316,-0.03236646205186844,-0.012941631488502026
1777560239949920500,9.09892041015625,-0.019521502777934074,-0.07460739463567734,0.00649731419980526
1777560239959961300,9.10896142578125,-0.010282997973263264,-0.07441777735948563,0.018788602203130722
1777560239970001400,9.11900146484375,-0.01323750801384449,-0.07627373188734055,0.025649437680840492
1777560239980042500,9.12904248046875,-0.019750801846385002,-0.055924784392118454,0.0132111432030797
1777560239990083600,9.13908349609375,-0.017735587432980537,-0.0222706850618124,0.008655806072056293
1777560240000124400,9.14912451171875,-0.020590228959918022,0.00686190091073513,0.005795038305222988
1777560240010164200,9.159164306640625,-0.02117532677948475,0.039799079298973083,-0.002590723102912307
1777560240020205300,9.169205322265626,-0.017414409667253494,0.0600697286427021,-0.00033928672201000154
1777560240030246100,9.17924609375,-0.016140621155500412,0.08005382120609283,0.02034042589366436
1777560240040286200,9.1892861328125,-0.02207360975444317,0.08289248496294022,0.03477102890610695
1777560240050327300,9.199327392578125,-0.020242420956492424,0.08679401874542236,0.051241349428892136
1777560240060368400,9.209368408203124,-0.024863803759217262,0.08091828227043152,0.07906579226255417
1777560240070409200,9.2194091796875,-0.03153235837817192,0.06832286715507507,0.09673906117677689
1777560240080449300,9.22944921875,-0.04322123900055885,0.08501902222633362,0.1344265192747116
1777560240090490400,9.239490478515625,-0.06410522013902664,0.05480998381972313,0.14423148334026337
1777560240100531500,9.249531494140625,-0.04283854365348816,-0.022309565916657448,0.05559961125254631
1777560240110572300,9.259572265625,0.0016237293602898717,-0.04657149687409401,-0.039201464504003525
1777560240120612400,9.2696123046875,0.011642009019851685,-0.04077699035406113,-0.09315497428178787
1777560240130653400,9.2796533203125,0.0046328348107635975,-0.03641686215996742,-0.09890660643577576
1777560240140694300,9.2896943359375,-0.021555891260504723,0.009486978873610497,-0.033429328352212906
1777560240150734300,9.299734375,-0.03374358266592026,0.056404419243335724,0.026551449671387672
1777560240160775400,9.309775390625,-0.02473543956875801,0.03099653124809265,0.033482059836387634
1777560240170816500,9.31981640625,-0.022051772102713585,0.0007819040911272168,0.017714548856019974
1777560240180857300,9.329857421875,-0.02630484104156494,-0.022495988756418228,-0.010751447640359402
1777560240190897200,9.339897216796874,-0.02491973154246807,-0.06528846174478531,-0.04458397999405861
1777560240200938200,9.349938232421875,-0.028568262234330177,-0.12312299758195877,-0.05384831875562668
1777560240210979600,9.3599794921875,-0.028385035693645477,-0.14127136766910553,-0.05526245757937431
1777560240221020400,9.3700205078125,-0.025418540462851524,-0.12892761826515198,-0.06644906103610992
1777560240231060200,9.380060302734375,-0.02111780270934105,-0.11725924909114838,-0.06577208638191223
1777560240241101300,9.390101318359376,-0.028308337554335594,-0.11625896394252777,-0.02334953099489212
1777560240251142100,9.40014208984375,-0.044022317975759506,-0.14980919659137726,0.04721464961767197
1777560240261183200,9.410183349609374,-0.02949424274265766,-0.10332053154706955,0.09203937649726868
1777560240271223300,9.420223388671875,-0.021705029532313347,-0.05612718313932419,0.08562488853931427
1777560240281264400,9.430264404296874,-0.014742993749678135,-0.026445722207427025,0.04663567990064621
1777560240291305200,9.44030517578125,-0.010965831577777863,-0.0005669869715347886,0.008829976432025433
1777560240301345300,9.45034521484375,-0.01053519919514656,0.0038488004356622696,-0.01607164368033409
1777560240311386400,9.460386474609376,-0.002287389012053609,0.006668289192020893,-0.02449335902929306
1777560240321427500,9.470427490234375,-0.005510080140084028,0.011473430320620537,-0.02221289463341236
1777560240331468300,9.48046826171875,-0.01076849177479744,-0.012518987990915775,-0.018665563315153122
1777560240341508400,9.49050830078125,-0.007727960590273142,-0.03497449681162834,-0.008215585723519325
1777560240351549400,9.500549560546874,-0.00646775308996439,-0.03440111503005028,0.012475578114390373
1777560240361590300,9.51059033203125,-0.011876633390784264,-0.010752779431641102,0.021700235083699226
1777560240371631400,9.52063134765625,-0.014829279854893684,0.014434066601097584,0.022699186578392982
1777560240381671400,9.53067138671875,-0.012339490465819836,0.02502492628991604,0.02328215353190899
1777560240391712500,9.54071240234375,-0.01191018894314766,0.04352404177188873,0.021630194038152695
1777560240401753300,9.55075341796875,-0.011232680641114712,0.05770191177725792,0.006682936567813158
1777560240411794400,9.56079443359375,-0.011139203794300556,0.0490407794713974,-0.009036637842655182
1777560240421834200,9.570834228515626,-0.00833649281412363,0.027405258268117905,-0.016472982242703438
1777560240431875300,9.580875244140625,-0.006120210513472557,-0.020839767530560493,-0.014319018460810184
1777560240441916200,9.590916259765624,0.006374009884893894,-0.05808860436081886,-0.003944407682865858
1777560240451956200,9.600956298828125,0.006567355245351791,-0.06202608719468117,0.008945824578404427
1777560240461997300,9.610997314453124,-0.00580888707190752,-0.0594358965754509,0.009690177626907825
1777560240472038100,9.6210380859375,-0.0036693033762276173,-0.05288025736808777,0.01489266287535429
1777560240482079200,9.631079345703125,-0.005803294479846954,-0.023618243634700775,0.03273637592792511
1777560240492119300,9.641119384765625,-0.009633186273276806,-0.008826248347759247,0.04975264146924019
1777560240502160400,9.651160400390625,-0.008374043740332127,-0.000009054747351910919,0.05654130503535271
1777560240512201200,9.661201171875,-0.004974518436938524,-0.003463441040366888,0.054488010704517365
1777560240522242300,9.6712421875,0.0025092302821576595,-0.004772384651005268,0.05342647433280945
1777560240532282400,9.681282470703126,0.00028336033574305475,0.014681474305689335,0.05429839342832565
1777560240542323500,9.691323486328125,-0.006057892460376024,0.030182136222720146,0.0440920926630497
1777560240552364300,9.7013642578125,-0.006650445982813835,0.03315901756286621,0.03437395393848419
1777560240562405400,9.7114052734375,-0.005053880624473095,0.0291200689971447,0.037524472922086716
1777560240572445400,9.721445556640624,-0.005351355765014887,0.01389743946492672,0.04845674708485603
1777560240582486300,9.731486328125,-0.010463560000061989,0.00336090917699039,0.06475263088941574
1777560240592527400,9.74152734375,-0.013552027754485607,0.0089953588321805,0.0751890242099762
1777560240602568400,9.751568359375,-0.03604322299361229,0.0086001455783844,0.08234014362096786
1777560240612608500,9.7616083984375,-0.038662973791360855,0.004926315508782864,0.08633195608854294
1777560240622649300,9.7716494140625,-0.028846561908721924,0.040341563522815704,0.08367732167243958
1777560240632690400,9.7816904296875,-0.03874606266617775,0.06336832046508789,0.07611660659313202
1777560240642731500,9.7917314453125,-0.040835313498973846,0.05800444632768631,0.0687047615647316
1777560240652771300,9.801771240234375,-0.03471936285495758,0.05891365185379982,0.06148839369416237
1777560240662812200,9.811812255859374,-0.03310708701610565,0.04176076129078865,0.060079582035541534
1777560240672853200,9.821853271484375,-0.03945739567279816,0.019001919776201248,0.06843684613704681
1777560240682893300,9.831893310546874,-0.04054689407348633,0.010588995181024075,0.0731530413031578
1777560240692934400,9.841934326171875,-0.03906217962503433,0.012575979344546795,0.06250865012407303
1777560240702975200,9.851975341796875,-0.038493331521749496,0.016696687787771225,0.04905915632843971
1777560240713016300,9.862016357421876,-0.04657122865319252,0.02274525910615921,0.04146888107061386
1777560240723056400,9.872056396484375,-0.05040937662124634,0.036858417093753815,0.0421019122004509
1777560240733097200,9.88209716796875,-0.06233767792582512,0.041428133845329285,0.04258980602025986
1777560240743138300,9.89213818359375,-0.06585917621850967,0.01702159456908703,0.03921930864453316
1777560240753179400,9.902179443359374,-0.06325380504131317,-0.010333597660064697,0.04661810025572777
1777560240763219500,9.912219482421875,-0.0634455531835556,-0.03099093958735466,0.05413567274808884
1777560240773260300,9.92226025390625,-0.06481281667947769,-0.043243344873189926,0.05679776892066002
1777560240783301400,9.93230126953125,-0.06328709423542023,-0.04914810508489609,0.05049033835530281
1777560240793342500,9.942342529296875,-0.05921778455376625,-0.04691983759403229,0.03606186434626579
1777560240803382300,9.95238232421875,-0.0492253378033638,-0.028855083510279655,0.01044385228306055
1777560240813423400,9.96242333984375,-0.04525589570403099,-0.011159710586071014,-0.013820474036037922
1777560240823464400,9.97246435546875,-0.0466814860701561,-0.011122426018118858,-0.020236030220985413
1777560240833505300,9.98250537109375,-0.045039113610982895,0.0065042381174862385,0.05438388139009476
1777560240843545600,9.992545654296874,-0.03604615107178688,-0.06883871555328369,0.05246666818857193
1777560240853586700,10.002586669921875,-0.02521800436079502,-0.16167864203453064,-0.004832039587199688
1777560240863627800,10.012627685546875,-0.02316976711153984,-0.23926344513893127,-0.033250629901885986
1777560240873668600,10.022668701171876,-0.01667911186814308,-0.24334686994552612,0.02376178838312626
1777560240883708400,10.03270849609375,-0.017294036224484444,-0.14487595856189728,0.15396293997764587
