time,seconds_elapsed,z,y,x
1777560230922159000,0.0711591796875,0.0030189012177288532,-0.08170535415410995,-0.0332210473716259
1777560230932199000,0.081198974609375,0.008047892712056637,-0.0596601776778698,-0.025123383849859238
1777560230942240000,0.091239990234375,0.0073482804000377655,-0.033233094960451126,-0.017215659841895103
1777560230952280000,0.101280029296875,0.0032806594390422106,-0.020130056887865067,-0.008285057730972767
1777560230962321200,0.111321044921875,0.00003479875158518553,-0.009934943169355392,-0.0008596321567893028
1777560230972361000,0.12136083984375,0.0025600758381187916,-0.00355358375236392,-0.002307213842868805
1777560230982402000,0.131402099609375,0.00036536483094096184,0.006875621620565653,-0.018320269882678986
1777560230992442000,0.141442138671875,0.003536724951118231,0.0008852184982970357,-0.043953388929367065
1777560231002483200,0.151483154296875,0.008247856982052326,-0.004750296473503113,-0.06227726861834526
1777560231012523300,0.161523193359375,0.009432880207896233,0.007212928030639887,-0.07312094420194626
1777560231022564000,0.171564208984375,0.014231630600988865,0.012203425168991089,-0.07957272231578827
1777560231032604000,0.18160400390625,0.009988811798393726,0.015136891044676304,-0.08203552663326263
1777560231042645000,0.19164501953125,0.0102202408015728,0.007485896348953247,-0.0789577066898346
1777560231052685000,0.20168505859375,0.001882552751339972,0.011101676151156425,-0.07662806659936905
1777560231062726100,0.21172607421875,0.0008391262963414192,0.017185932025313377,-0.07939188927412033
1777560231072767000,0.22176708984375,-0.0004379427991807461,0.01381148025393486,-0.08249109238386154
1777560231082807000,0.23180712890625,0.00018869887571781874,0.0031828046776354313,-0.08177629858255386
1777560231092848000,0.24184814453125,0.0038874493911862373,-0.0008245992939919233,-0.07194717973470688
1777560231102888200,0.25188818359375,0.004318614955991507,0.00811962690204382,-0.0583522766828537
1777560231112929000,0.261928955078125,0.006598683539777994,0.013970596715807915,-0.05830281972885132
1777560231122969000,0.271968994140625,0.010672520846128464,0.021256474778056145,-0.06597086042165756
1777560231133010200,0.28201025390625,0.016220251098275185,0.03176511824131012,-0.0743168443441391
1777560231143050200,0.29205029296875,0.01594381593167782,0.031010376289486885,-0.08009004592895508
1777560231153091000,0.302091064453125,0.011103665456175804,0.023104047402739525,-0.07987773418426514
1777560231163131000,0.312130859375,0.006601857021450996,0.004693082999438047,-0.0684272050857544
1777560231173172000,0.322171875,0.00572061724960804,0.0015287152491509914,-0.04749476537108421
1777560231183212000,0.3322119140625,0.0012949759839102626,0.005810811650007963,-0.027580443769693375
1777560231193253000,0.342253173828125,-0.0013151576276868582,0.011640922166407108,-0.019190169870853424
1777560231203293200,0.352293212890625,0.00023746525403112173,0.012406048364937305,-0.00700887106359005
1777560231213334000,0.362333984375,0.004988300614058971,0.014419789426028728,0.006940879859030247
1777560231223375000,0.372375,0.007745204493403435,0.019261684268712997,0.017722953110933304
1777560231233415200,0.382415283203125,0.008105367422103882,0.015855589881539345,0.021104034036397934
1777560231243456000,0.3924560546875,0.007477927021682262,0.011378281749784946,0.01854766719043255
1777560231253496000,0.40249609375,0.0065978229977190495,0.005718158558011055,0.01503799669444561
1777560231263537200,0.412537109375,0.007391445338726044,0.001058425521478057,0.01606251485645771
1777560231273577000,0.422576904296875,0.0048665329813957214,-0.00036165444180369377,0.01764361932873726
1777560231283618300,0.432618408203125,0.0041091302409768105,-0.0022442429326474667,0.015884602442383766
1777560231293658000,0.442658203125,0.005724061280488968,0.002467630198225379,0.013236748985946178
1777560231303699000,0.452698974609375,0.00357169471681118,0.002750191604718566,0.012085463851690292
1777560231313739000,0.462739013671875,0.006924798246473074,0.005835768301039934,0.014253458008170128
1777560231323780000,0.472780029296875,0.006939978338778019,0.0018223848892375827,0.01119188778102398
1777560231333820200,0.482820068359375,0.005654491484165192,-0.0001905723474919796,0.003939415328204632
1777560231343861000,0.492861083984375,0.009879596531391144,-0.00024223770014941692,-0.00982300192117691
1777560231353901000,0.502901123046875,0.010362897999584675,-0.0042607830837368965,-0.02791569009423256
1777560231363942100,0.512942138671875,0.012342425994575024,-0.010520276613533497,-0.035954974591732025
1777560231373983200,0.522983154296875,0.01287947315722704,-0.005905697122216225,-0.03103725239634514
1777560231384023300,0.533023193359375,0.006476168986409903,-0.01258250791579485,-0.01461886428296566
1777560231394064100,0.543064208984375,0.0026248875074088573,-0.017269354313611984,0.0054105245508253574
1777560231404104000,0.55310400390625,-0.002246300457045436,-0.007759206462651491,0.02010504901409149
1777560231414145000,0.56314501953125,-0.004466964863240719,0.0003379195695742965,0.018186723813414574
1777560231424185000,0.57318505859375,-0.0034424469340592623,0.0029475511983036995,0.004635228309780359
1777560231434226000,0.583225830078125,-0.001617833273485303,0.008056520484387875,-0.01095989067107439
1777560231444266000,0.593265869140625,-0.003265530802309513,0.005658877082169056,-0.02470792829990387
1777560231454307000,0.60330712890625,-0.0023603951558470726,-0.0008375305915251374,-0.02743937261402607
1777560231464347100,0.61334716796875,-0.0007230838527902961,-0.013783156871795654,-0.01119888573884964
1777560231474388200,0.62338818359375,0.004269860219210386,-0.015829484909772873,0.006474219728261232
1777560231484429000,0.633428955078125,0.005974549800157547,-0.007669026963412762,0.01846909709274769
1777560231494469000,0.64346923828125,0.002398213604465127,0.00043348874896764755,0.02186410129070282
1777560231504510200,0.65351025390625,0.0007720875437371433,0.009448821656405926,0.022632692009210587
1777560231514550300,0.66355029296875,0.0010841989424079657,0.017444640398025513,0.018540605902671814
1777560231524591000,0.673591064453125,0.0021183043718338013,0.018191922456026077,0.012521862052381039
1777560231534631000,0.683630859375,0.009827623143792152,0.001877131056971848,0.020189901813864708
1777560231544672000,0.693672119140625,0.010040594264864922,-0.02249102108180523,0.040967799723148346
1777560231554712000,0.703712158203125,0.009518981911242008,-0.017894050106406212,0.057645246386528015
1777560231564753200,0.713753173828125,0.014693769626319408,-0.013389047235250473,0.07227106392383575
1777560231574793200,0.723793212890625,0.015128296799957752,-0.003332506399601698,0.08211789280176163
1777560231584834000,0.733833984375,0.012667536735534668,0.03389422595500946,0.07460005581378937
1777560231594875100,0.743875244140625,0.005953020416200161,0.05655653774738312,0.03754304349422455
1777560231604915200,0.753915283203125,0.008013508282601833,0.054242782294750214,-0.007782890927046537
1777560231614956000,0.7639560546875,0.013360795564949512,0.0487876757979393,-0.048663850873708725
1777560231624996000,0.77399609375,0.016940083354711533,0.0091188233345747,-0.08666636794805527
1777560231635037200,0.784037109375,0.016914397478103638,-0.03743371367454529,-0.07626250386238098
1777560231645077000,0.794076904296875,0.013771867379546165,-0.047585148364305496,-0.042352210730314255
1777560231655118000,0.8041181640625,0.00718895485624671,-0.05065477266907692,-0.00006811926141381264
1777560231665158100,0.814158203125,0.0029547950252890587,-0.04583258554339409,0.03444591537117958
1777560231675199000,0.824198974609375,0.0044745951890945435,-0.031805623322725296,0.038447361439466476
1777560231685239000,0.834239013671875,0.00863391999155283,-0.029561910778284073,0.021165575832128525
1777560231695280000,0.844280029296875,0.017547011375427246,-0.009732963517308235,0.0041738166473805904
1777560231705321000,0.854321044921875,0.03309188038110733,0.027173655107617378,-0.00814996100962162
1777560231715361000,0.864361083984375,0.039552412927150726,0.054266609251499176,-0.005993318744003773
1777560231725402000,0.874402099609375,0.03495446592569351,0.040839750319719315,-0.0007106726989150047
1777560231735442200,0.884442138671875,0.024829184636473656,0.0370645672082901,0.007426964119076729
1777560231745483300,0.894483154296875,0.025117870420217514,0.021126344799995422,0.03567484766244888
1777560231755523300,0.9045234375,0.0314408540725708,-0.004292119760066271,0.06693432480096817
1777560231765564200,0.914564208984375,0.03587901219725609,-0.0157674141228199,0.08010765165090561
1777560231775604000,0.92460400390625,0.036302436143159866,-0.016541188582777977,0.082578144967556
1777560231785645000,0.93464501953125,0.03709952160716057,-0.01211128756403923,0.08343595266342163
1777560231795686000,0.944685791015625,0.04235337674617767,-0.0028113769367337227,0.07183148711919785
1777560231805726000,0.954725830078125,0.052053943276405334,0.0131169892847538,0.06198551505804062
1777560231815767000,0.96476708984375,0.05698850005865097,0.048573728650808334,0.049533773213624954
1777560231825807000,0.97480712890625,0.05968335270881653,0.06707630306482315,0.016684480011463165
1777560231835848200,0.98484814453125,0.05079038068652153,0.08785928785800934,-0.01840219274163246
1777560231845887200,0.99488720703125,0.03887540102005005,0.07332082092761993,-0.03925208002328873
1777560231855928000,1.004927978515625,0.010437927208840847,0.010927598923444748,-0.01700615882873535
1777560231865968000,1.014968017578125,0.007610714994370937,-0.04164399951696396,-0.015932906419038773
1777560231876009200,1.02500927734375,0.009606016799807549,-0.06928244978189468,-0.013713455758988857
1777560231886050300,1.03505029296875,-0.006322348956018686,-0.10598533600568771,-0.010734177194535732
1777560231896090400,1.04509033203125,-0.018463026732206345,-0.1375804841518402,-0.02172818034887314
1777560231906131200,1.055131103515625,-0.02835347317159176,-0.1452368050813675,-0.029949892312288284
1777560231916171300,1.065171142578125,-0.02936466969549656,-0.14023053646087646,-0.037278663367033005
1777560231926212400,1.07521240234375,-0.024823980405926704,-0.11615794152021408,-0.04459330067038536
1777560231936252400,1.08525244140625,-0.026060376316308975,-0.06962039321660995,-0.04519324004650116
1777560231946293200,1.095293212890625,-0.01940913125872612,-0.026118721812963486,-0.04778103530406952
1777560231956333000,1.1053330078125,-0.010894005186855793,0.038196712732315063,-0.057126015424728394
1777560231966374100,1.1153740234375,-0.006317096762359142,0.09154808521270752,-0.07329700142145157
1777560231976415200,1.125415283203125,-0.0008959664264693856,0.10047846287488937,-0.10463841259479523
1777560231986455300,1.135455322265625,-0.0080314502120018,0.08352062851190567,-0.1272279918193817
1777560231996496100,1.14549609375,-0.007280970457941294,0.053576841950416565,-0.13706623017787933
1777560232006536200,1.1555361328125,-0.0003387711476534605,0.022512126713991165,-0.135789155960083
1777560232016577300,1.165577392578125,0.0014197140699252486,0.01543504185974598,-0.13485226035118103
1777560232026617300,1.175617431640625,0.001035627443343401,0.028749750927090645,-0.1348104476928711
1777560232036658200,1.185658203125,-0.0015862401342019439,0.029898162931203842,-0.1285976767539978
1777560232046699300,1.19569921875,-0.0017348445253446698,0.03682238236069679,-0.11915358155965805
1777560232056739300,1.2057392578125,-0.0023423111997544765,0.06981521844863892,-0.10325691103935242
1777560232066780400,1.215780517578125,-0.013600196689367294,0.09052883833646774,-0.07306284457445145
1777560232076820500,1.225820556640625,-0.010452451184391975,0.10418272018432617,-0.0581662654876709
1777560232086861300,1.235861328125,-0.0023039765655994415,0.10365062206983566,-0.05804189294576645
1777560232096901000,1.245901123046875,0.0009477431885898113,0.08605565130710602,-0.05925522744655609
1777560232106942200,1.255942138671875,0.0005775950849056244,0.05626225471496582,-0.05819451063871384
1777560232116982300,1.265982177734375,-0.006565002724528313,0.03449330851435661,-0.04107038304209709
1777560232127023000,1.276023193359375,-0.019534602761268616,0.027637463063001633,-0.011501023545861244
1777560232137064200,1.286064208984375,-0.03358756750822067,0.02201313152909279,0.016296252608299255
1777560232147104300,1.296104248046875,-0.03534241393208504,0.02161131426692009,0.030633142217993736
1777560232157145300,1.306145263671875,-0.025118540972471237,0.02095670811831951,0.023639947175979614
1777560232167185400,1.316185302734375,-0.013894962146878242,0.020521769300103188,0.012995189055800438
1777560232177226200,1.326226318359375,-0.007153170183300972,0.01999952457845211,-0.004064221866428852
1777560232187266300,1.336266357421875,-0.008428244851529598,0.012452436611056328,-0.013222463428974152
1777560232197307400,1.346307373046875,-0.00909749697893858,0.00602542981505394,-0.007736085448414087
1777560232207348200,1.35634814453125,-0.011353460140526295,0.002933499636128545,-0.005564011167734861
1777560232217388000,1.366387939453125,-0.013119402341544628,-0.011585255153477192,-0.002183394506573677
1777560232227429000,1.37642919921875,-0.008910809643566608,-0.016794931143522263,0.005327252205461264
1777560232237469200,1.38646923828125,-0.006190123502165079,-0.02845824509859085,0.014845389872789383
1777560232247510300,1.39651025390625,-0.004671698901802301,-0.024468373507261276,0.03314654529094696
1777560232257550300,1.40655029296875,-0.00795377790927887,-0.006441701203584671,0.05408058688044548
1777560232267591200,1.416591064453125,-0.008161239326000214,0.008753230795264244,0.05498472973704338
1777560232277632300,1.42663232421875,0.019648993387818336,0.020197879523038864,0.03630669414997101
1777560232287672300,1.43667236328125,0.012051526457071304,0.019419170916080475,0.02176237665116787
1777560232297713200,1.446713134765625,0.011591864749789238,0.03891164809465408,-0.010648028925061226
1777560232307753200,1.456753173828125,0.009650686755776405,0.05337740480899811,-0.04282087832689285
1777560232317794300,1.466794189453125,0.001888637663796544,0.029638253152370453,-0.06934037059545517
1777560232327834400,1.47683447265625,-0.002441129647195339,-0.019651265814900398,-0.08325991034507751
1777560232337875500,1.48687548828125,-0.003945736680179834,-0.06399194151163101,-0.06917248666286469
1777560232347916300,1.496916259765625,-0.0027877939864993095,-0.05030808597803116,-0.03190581128001213
1777560232357956000,1.5069560546875,-0.008438755758106709,-0.02498994767665863,-0.0062225512228906155
1777560232367997200,1.5169970703125,-0.00786658376455307,-0.01641802303493023,-0.0038665258325636387
1777560232378037200,1.527037353515625,-0.0002992121735587716,0.0008477829396724701,-0.01155773364007473
1777560232388078300,1.537078369140625,0.005516756325960159,0.02659268118441105,-0.016103558242321014
1777560232398118100,1.5471181640625,0.007186292205005884,0.047077715396881104,-0.024632330983877182
1777560232408159200,1.5571591796875,0.009849358350038528,0.059079162776470184,-0.03928791731595993
1777560232418200300,1.567200439453125,0.013621193356812,0.06709074974060059,-0.049241214990615845
1777560232428240400,1.577240478515625,0.013694055378437042,0.06835221499204636,-0.043925631791353226
1777560232438281200,1.58728125,0.008016462437808514,0.04201515018939972,-0.04215356707572937
1777560232448321300,1.5973212890625,0.009374436922371387,0.008237199857831001,-0.0268113873898983
1777560232458362400,1.6073623046875,0.009310254827141762,0.01562640629708767,0.010881396941840649
1777560232468402200,1.617402099609375,0.003680724650621414,0.024310769513249397,0.028995120897889137
1777560232478443300,1.627443359375,0.0043928539380431175,0.032311972230672836,0.02064131759107113
1777560232488484000,1.637484130859375,0.006905767135322094,0.05297999083995819,0.007821539416909218
1777560232498524200,1.647524169921875,0.0033192881383001804,0.11012823134660721,-0.01449654996395111
1777560232508565200,1.657565185546875,0.00607591075822711,0.12543949484825134,-0.03172307461500168
1777560232518605300,1.667605224609375,0.013694149442017078,0.10387294739484787,-0.02582763507962227
1777560232528646100,1.677646240234375,0.01978645846247673,0.10793276876211166,-0.014488188549876213
1777560232538687200,1.687687255859375,0.016699323430657387,0.11008194088935852,-0.01181970164179802
1777560232548727300,1.697727294921875,0.014891787432134151,0.0812814012169838,-0.005242597311735153
1777560232558768400,1.707768310546875,0.010260551236569881,0.041273798793554306,-0.004325937479734421
1777560232568808200,1.71780810546875,0.007879183627665043,0.001625640201382339,-0.00009552016854286194
1777560232578849300,1.727849365234375,0.0056541129015386105,-0.015519258566200733,0.01056884229183197
1777560232588889300,1.737889404296875,0.0008526050369255245,-0.008800316601991653,0.020187677815556526
1777560232598930400,1.747930419921875,0.0024052278604358435,0.009486544877290726,0.01654420793056488
1777560232608971300,1.75797119140625,0.002948638517409563,0.03277768939733505,-0.005232520401477814
1777560232619011000,1.768010986328125,0.00744352163746953,0.05248667672276497,-0.03086118772625923
1777560232629052200,1.77805224609375,0.012102862820029259,0.07439383119344711,-0.04169751703739166
1777560232639092200,1.78809228515625,0.01535798143595457,0.09435047209262848,-0.03386460989713669
1777560232649133300,1.79813330078125,0.015396597795188427,0.09139382839202881,-0.016526896506547928
1777560232659174100,1.808174072265625,0.01587277092039585,0.06825815141201019,0.005058822222054005
1777560232669214200,1.818214111328125,0.017301321029663086,0.03903752565383911,0.02756199985742569
1777560232679255300,1.82825537109375,0.01206379383802414,0.021061865612864494,0.042876314371824265
1777560232689295400,1.83829541015625,0.012301880866289139,0.023480549454689026,0.04602363705635071
1777560232699336200,1.848336181640625,0.01083314698189497,0.036224305629730225,0.031104344874620438
1777560232709376300,1.858376220703125,0.016464540734887123,0.047648534178733826,0.010413505136966705
1777560232719417300,1.868417236328125,0.025316622108221054,0.06792876869440079,-0.004377424716949463
1777560232729458400,1.87845849609375,0.03451524302363396,0.11009203642606735,0.003964897710829973
1777560232739498500,1.88849853515625,0.022862926125526428,0.14512376487255096,0.029150769114494324
1777560232749539300,1.898539306640625,0.005598718766123056,0.11015404760837555,-0.005726256407797337
1777560232759579100,1.9085791015625,0.0071875606663525105,0.041650623083114624,-0.04218493029475212
1777560232769620200,1.9186201171875,0.00992179661989212,-0.013655956834554672,-0.05392812564969063
1777560232779661000,1.9286611328125,-0.0009148720419034362,-0.05094021186232567,-0.03782612085342407
1777560232789701000,1.938701171875,-0.014528779312968254,-0.07425513863563538,-0.011495668441057205
1777560232799742200,1.9487421875,-0.023028790950775146,-0.06949739903211594,0.019540011882781982
1777560232809782300,1.9587822265625,-0.01887422800064087,-0.049603745341300964,0.039158985018730164
1777560232819823400,1.9688232421875,-0.017333118245005608,-0.03971872478723526,0.05401545763015747
1777560232829863400,1.978863525390625,-0.01667664758861065,-0.0355205163359642,0.042605675756931305
1777560232839905000,1.988905029296875,-0.00589723838493228,-0.028070058673620224,0.020648181438446045
1777560232849946000,1.998946044921875,-0.00945359282195568,-0.022990088909864426,0.0013373061083257198
1777560232859986200,2.008986083984375,-0.010901020839810371,-0.020413480699062347,-0.0068300762213766575
1777560232870027000,2.019027099609375,-0.011794778518378735,-0.036650240421295166,-0.009091632440686226
1777560232880067000,2.029067138671875,-0.013200128450989723,-0.06654555350542068,-0.00519036827608943
1777560232890108200,2.039108154296875,-0.012422001920640469,-0.08643987774848938,0.005071474704891443
1777560232900149000,2.04914892578125,-0.013530942611396313,-0.07679656893014908,0.01726396009325981
1777560232910188800,2.059188720703125,-0.015768982470035553,-0.04857755824923515,0.02310596965253353
1777560232920230000,2.06922998046875,-0.013901041820645332,-0.019282251596450806,0.01594526320695877
1777560232930270000,2.07927001953125,-0.008873023092746735,0.00701194629073143,0.0086721982806921
1777560232940311000,2.08931103515625,-0.0010526508558541536,0.030587846413254738,0.001564220990985632
1777560232950352000,2.099351806640625,0.0037142822984606028,0.04735490679740906,-0.0007662521675229073
1777560232960392000,2.109391845703125,0.002299078507348895,0.05141622573137283,-0.0070582362823188305
1777560232970433000,2.11943310546875,0.0007915725000202656,0.04360106214880943,-0.017701752483844757
1777560232980473000,2.12947314453125,0.0007394686690531671,0.03387654572725296,-0.0298687145113945
1777560232990514000,2.139513916015625,0.0010641079861670732,0.014305243268609047,-0.03588319942355156
1777560233000554000,2.149553955078125,0.003108084201812744,0.00182034308090806,-0.039162881672382355
1777560233010595000,2.159594970703125,0.0018379432149231434,-0.003916795831173658,-0.03745776042342186
1777560233020636200,2.16963623046875,0.00000781891867518425,0.004874298814684153,-0.03284703195095062
1777560233030676200,2.17967626953125,0.00008199515286833048,0.02304830588400364,-0.026009302586317062
1777560233040717000,2.189717041015625,0.001454854616895318,0.03823471814393997,-0.017615020275115967
1777560233050756900,2.1997568359375,0.006538689136505127,0.05514119565486908,-0.002104563172906637
1777560233060798000,2.2097978515625,0.00727984681725502,0.07153481990098953,0.007135540246963501
1777560233070839000,2.219839111328125,0.009323257952928543,0.07257779687643051,0.013012619689106941
1777560233080878800,2.22987890625,0.007570617366582155,0.06983327865600586,0.0157662071287632
1777560233090920000,2.239919921875,0.005830774083733559,0.066244937479496,0.014290018007159233
1777560233100960000,2.2499599609375,-0.0024849488399922848,0.05636841058731079,0.016087107360363007
1777560233111001000,2.2600009765625,-0.008918346837162971,0.04289121553301811,0.021316222846508026
1777560233121041200,2.270041259765625,-0.010167711414396763,0.017140012234449387,0.01807534694671631
1777560233131082000,2.28008203125,-0.015018925070762634,-0.005955187138170004,0.02157207764685154
1777560233141123000,2.290123046875,-0.019766543060541153,-0.014154260978102684,0.03119168058037758
1777560233151163100,2.3001630859375,-0.01835407316684723,-0.006944509223103523,0.03521093353629112
1777560233161204200,2.310204345703125,-0.015031245537102222,0.0016180863603949547,0.047501154243946075
1777560233171244000,2.320244140625,-0.010786520317196846,0.01300773210823536,0.05509788542985916
1777560233181284900,2.330284912109375,-0.0023304366040974855,0.018102219328284264,0.06067918986082077
1777560233191326000,2.340325927734375,0.0031863017939031124,0.029113058000802994,0.06298522651195526
1777560233201366000,2.350365966796875,0.0021508645731955767,0.036450598388910294,0.07015898078680038
1777560233211406800,2.36040673828125,0.0016397578874602914,0.045626476407051086,0.0782085508108139
1777560233221447000,2.370447021484375,-0.004609302617609501,0.05473393201828003,0.0893888846039772
1777560233231488000,2.380488037109375,-0.009858126752078533,0.04822143539786339,0.1002362072467804
1777560233241529000,2.390529052734375,-0.013627031818032265,0.026225855574011803,0.10105858743190765
1777560233251569200,2.400569091796875,-0.006350070238113403,-0.0032936236821115017,0.11683414876461029
1777560233261610000,2.41060986328125,0.0020412844605743885,-0.03193964809179306,0.14729350805282593
1777560233271650000,2.420650146484375,0.01730075664818287,-0.06567781418561935,0.17742392420768738
1777560233281691100,2.430691162109375,0.032926447689533234,-0.043217044323682785,0.22202488780021667
1777560233291732000,2.44073193359375,0.0509595088660717,0.02036406099796295,0.2603171467781067
1777560233301772000,2.45077197265625,0.058268822729587555,0.07153856009244919,0.27893850207328796
1777560233311813000,2.460813232421875,0.06049351766705513,0.1220603808760643,0.2637674808502197
1777560233321853000,2.47085302734375,0.04837774857878685,0.17212533950805664,0.22700664401054382
1777560233331894000,2.48089404296875,0.03340731933712959,0.20728226006031036,0.17221982777118683
1777560233341934000,2.49093408203125,0.04169454425573349,0.188275545835495,0.13832950592041016
1777560233351975000,2.500974853515625,0.031666100025177,0.2665002644062042,0.16684599220752716
1777560233362016000,2.51101611328125,0.13755658268928528,0.3217526078224182,0.4282216727733612
1777560233372056000,2.52105615234375,0.04626092687249184,0.24195575714111328,0.4384980797767639
1777560233382097000,2.531096923828125,0.10193697363138199,0.1920475959777832,0.40962356328964233
1777560233392137000,2.541136962890625,0.06872592866420746,0.04412202164530754,0.3778877556324005
1777560233402178000,2.551177978515625,0.06104084104299545,-0.15483129024505615,0.4107556939125061
1777560233412219100,2.56121923828125,0.0710468590259552,-0.27429312467575073,0.5121359825134277
1777560233422259200,2.57125927734375,0.0550529770553112,-0.3395962119102478,0.6149787306785583
1777560233432300000,2.581300048828125,0.021934185177087784,-0.3778837323188782,0.6706982851028442
1777560233442339800,2.59133984375,-0.00020760355982929468,-0.28066158294677734,0.727644145488739
1777560233452381000,2.601380859375,-0.013881364837288857,-0.27665939927101135,0.7547199726104736
1777560233462422000,2.611422119140625,-0.058531392365694046,-0.21037915349006653,0.8072659969329834
1777560233472461800,2.6214619140625,-0.11904794722795486,-0.10507673025131226,0.8916870355606079
1777560233482503000,2.6315029296875,-0.2091224491596222,-0.03692670166492462,1.014284372329712
1777560233492543000,2.64154296875,-0.26274070143699646,-0.038205668330192566,1.1701921224594116
1777560233502584000,2.651583984375,-0.2376614362001419,0.012822363525629044,1.3732283115386963
1777560233512625000,2.661625,-0.1249050721526146,-0.322274386882782,1.6932449340820312
1777560233522665000,2.6716650390625,-0.05598060041666031,-0.6037803888320923,2.013911724090576
1777560233532706000,2.6817060546875,-0.020625099539756775,-0.5509158968925476,2.266953229904175
1777560233542746000,2.69174609375,-0.005342016462236643,-0.6104793548583984,2.4830265045166016
1777560233552787000,2.701786865234375,-0.01299227960407734,-0.7692424654960632,2.6322295665740967
1777560233562828000,2.711828125,-0.042096901684999466,-0.8315199613571167,2.7507026195526123
1777560233572868000,2.7218681640625,-0.08969774842262268,-0.7815489172935486,2.808173418045044
1777560233582909200,2.7319091796875,-0.14202673733234406,-0.626781165599823,2.784752130508423
1777560233592949000,2.741948974609375,-0.16372142732143402,-0.3996693193912506,2.7056500911712646
1777560233602989800,2.75198974609375,-0.16693374514579773,-0.30729731917381287,2.6304025650024414
1777560233613031000,2.762031005859375,-0.17211219668388367,-0.48233214020729065,2.5243732929229736
1777560233623071000,2.772071044921875,-0.1390269547700882,-0.853252649307251,2.2863640785217285
1777560233633112000,2.782112060546875,-0.08789194375276566,-0.9717587828636169,2.0108957290649414
1777560233643152000,2.79215185546875,-0.14192429184913635,-0.7177779078483582,1.7991209030151367
1777560233653193000,2.80219287109375,-0.1896229088306427,-0.49910837411880493,1.5845770835876465
1777560233663233000,2.81223291015625,-0.19266504049301147,-0.45249879360198975,1.4054896831512451
1777560233673274000,2.822274169921875,-0.15338371694087982,-0.5563007593154907,1.3020824193954468
1777560233683315000,2.83231494140625,-0.08591385930776596,-0.6503444314002991,1.2632598876953125
1777560233693355000,2.84235498046875,-0.0219865869730711,-0.6968887448310852,1.2454479932785034
1777560233703396000,2.85239599609375,0.07575515657663345,-0.7275058031082153,1.223199486732483
1777560233713436200,2.862436279296875,0.1672186255455017,-0.6811333894729614,1.2135353088378906
1777560233723477200,2.872477294921875,0.18385805189609528,-0.5324746966362,1.1904278993606567
1777560233733518000,2.88251806640625,0.13156142830848694,-0.29887986183166504,1.1602287292480469
1777560233743558000,2.892557861328125,0.01380390115082264,0.03927955776453018,1.1271355152130127
1777560233753599000,2.902598876953125,-0.1179484874010086,0.3577331602573395,1.0878204107284546
1777560233763639000,2.91263916015625,-0.22550131380558014,0.6092082262039185,1.024636149406433
1777560233773679900,2.922679931640625,-0.27817827463150024,0.7816846966743469,0.9280259013175964
1777560233783721000,2.932720947265625,-0.26684731245040894,0.8760130405426025,0.8319445848464966
1777560233793761000,2.942760986328125,-0.22263875603675842,0.8846582174301147,0.7895031571388245
1777560233803802000,2.952802001953125,-0.18914949893951416,0.7986788749694824,0.8319640755653381
1777560233813842200,2.96284228515625,-0.17648379504680634,0.5428921580314636,0.9874671697616577
1777560233823883000,2.972883056640625,-0.18888241052627563,0.26571619510650635,1.229074478149414
1777560233833924000,2.982924072265625,-0.20078705251216888,0.09005776047706604,1.4212861061096191
1777560233843964000,2.9929638671875,-0.21086391806602478,0.1425984650850296,1.5047959089279175
1777560233854004700,3.003004638671875,-0.15520966053009033,0.3613182008266449,1.3833403587341309
1777560233864044800,3.013044921875,-0.06851577758789062,0.38977140188217163,1.1314407587051392
1777560233874086000,3.0230859375,-0.08780845999717712,0.43270978331565857,0.9909194707870483
1777560233884126000,3.0331259765625,-0.07258929312229156,0.5657051205635071,0.9594219923019409
1777560233894167000,3.0431669921875,0.03810129687190056,0.5090993046760559,1.0215660333633423
1777560233904208000,3.053207763671875,0.15232133865356445,0.23643207550048828,1.2183315753936768
1777560233914247700,3.06324755859375,0.06539446860551834,0.03148304298520088,1.528927206993103
1777560233924288800,3.073288818359375,0.10566013306379318,-0.4292054772377014,1.9345873594284058
1777560233934328800,3.083328857421875,0.42286205291748047,-0.9856677651405334,2.2743349075317383
1777560233944370000,3.093369873046875,0.5961150527000427,-1.3493770360946655,2.6463088989257812
1777560233954410800,3.10341064453125,0.619947612285614,-1.7751705646514893,3.1931402683258057
1777560233964450800,3.113450927734375,0.5344484448432922,-1.9598299264907837,3.5821309089660645
1777560233974492000,3.123491943359375,0.3086598515510559,-2.0929393768310547,3.7422618865966797
1777560233984532000,3.133531982421875,0.05946442484855652,-1.9950852394104004,3.8506720066070557
1777560233994572800,3.14357275390625,-0.14189772307872772,-1.3112444877624512,3.77921199798584
1777560234004614000,3.15361376953125,-0.17352701723575592,-0.16618642210960388,3.048099994659424
1777560234014654000,3.163654052734375,0.027893321588635445,0.26906225085258484,1.8082690238952637
1777560234024695000,3.173695068359375,0.037999484688043594,0.4433802366256714,0.7623122334480286
1777560234034734800,3.18373486328125,-0.1363459676504135,0.4224170446395874,0.21084415912628174
1777560234044775700,3.193775634765625,-0.17174683511257172,0.35653629899024963,0.10568924993276596
1777560234054815700,3.203815673828125,-0.16157642006874084,0.3157693147659302,0.27311280369758606
1777560234064856800,3.21385693359375,-0.06610556691884995,0.2558703124523163,0.5216246843338013
1777560234074897700,3.223897705078125,-0.053588565438985825,0.15207813680171967,0.805429220199585
1777560234084937700,3.233937744140625,-0.1250302642583847,0.19942541420459747,1.026580572128296
1777560234094978800,3.243978759765625,-0.19216717779636383,0.29124534130096436,1.1870553493499756
1777560234105019000,3.254018798828125,-0.21158109605312347,0.36586177349090576,1.331202507019043
1777560234115060000,3.26406005859375,-0.22362276911735535,0.4548346698284149,1.5362420082092285
1777560234125100800,3.274100830078125,-0.24734140932559967,0.5847093462944031,1.8847084045410156
1777560234135140900,3.284140869140625,-0.3756161034107208,0.7826250195503235,2.384382486343384
1777560234145182000,3.294181884765625,-0.3692687451839447,0.6224755644798279,2.8643665313720703
1777560234155222000,3.304221923828125,-0.14003217220306396,0.0752415731549263,2.846219778060913
1777560234165262800,3.314262939453125,0.15293125808238983,-0.09707266837358475,2.6702260971069336
1777560234175302700,3.324302734375,0.3771347999572754,-0.14367985725402832,2.5437018871307373
1777560234185343700,3.33434375,0.5318756103515625,-0.26590484380722046,2.4246928691864014
1777560234195384800,3.344384765625,0.6427378058433533,-0.3191124200820923,2.2569549083709717
1777560234205425000,3.3544248046875,0.7409932613372803,-0.27270790934562683,2.0357775688171387
1777560234215465700,3.3644658203125,0.7912552952766418,-0.19666659832000732,1.780605673789978
1777560234225505800,3.374505859375,0.7334820032119751,-0.07558198273181915,1.5352824926376343
1777560234235547000,3.384546875,0.616083025932312,0.0529533289372921,1.3581453561782837
1777560234245587700,3.394587646484375,0.4704507291316986,0.11374690383672714,1.2859303951263428
1777560234255627800,3.404627685546875,0.34254178404808044,0.07882531732320786,1.3263726234436035
1777560234265668900,3.4146689453125,0.2796890437602997,-0.0010724386665970087,1.4827957153320312
1777560234275709000,3.424708984375,0.22866614162921906,-0.07116572558879852,1.6804988384246826
1777560234285750000,3.43475,0.15216709673404694,-0.06918646395206451,1.7930232286453247
1777560234295790000,3.4447900390625,0.009581178426742554,0.006195245310664177,1.7752007246017456
1777560234305831000,3.454830810546875,-0.17458173632621765,0.11788688600063324,1.6673061847686768
1777560234315872000,3.4648720703125,-0.3158816397190094,0.20889812707901,1.5514044761657715
1777560234325911800,3.474911865234375,-0.4130968749523163,0.23048916459083557,1.4992280006408691
1777560234335952600,3.48495263671875,-0.48748430609703064,0.1969069093465805,1.5289300680160522
1777560234345992700,3.49499267578125,-0.5700058341026306,0.094286248087883,1.3764235973358154
1777560234356033800,3.50503369140625,-0.5685312747955322,0.047551482915878296,1.1526856422424316
1777560234366075000,3.515074951171875,-0.4643170237541199,-0.020743686705827713,0.9875757694244385
1777560234376115000,3.525114990234375,-0.29448655247688293,-0.10946984589099884,0.7903013825416565
1777560234386155800,3.53515576171875,-0.10820028930902481,-0.1460760533809662,0.5466663837432861
1777560234396195800,3.54519580078125,-0.0349581278860569,-0.10875879973173141,0.362125039100647
1777560234406237000,3.55523681640625,-0.021263087168335915,-0.08544602245092392,0.28666889667510986
1777560234416277000,3.565277099609375,0.0037029057275503874,-0.09841345250606537,0.2684418559074402
1777560234426317800,3.57531787109375,-0.057555392384529114,-0.179585263133049,0.3185846507549286
1777560234436359000,3.58535888671875,-0.027569739148020744,-0.27249452471733093,0.37199854850769043
1777560234446398700,3.595398681640625,0.023579731583595276,-0.3202604353427887,0.37553977966308594
1777560234456439800,3.605439697265625,0.038711804896593094,-0.35154959559440613,0.36779361963272095
1777560234466479900,3.61547998046875,0.103708915412426,-0.3456270098686218,0.21257604658603668
1777560234476520700,3.625520751953125,0.15926194190979004,-0.2686724066734314,0.0396302230656147
1777560234486560800,3.635560791015625,0.20869900286197662,-0.1316288262605667,0.07686014473438263
1777560234496601900,3.645601806640625,0.09460970759391785,-0.02709735371172428,0.18502868711948395
1777560234506643000,3.655642822265625,0.042414676398038864,0.01517846342176199,0.22818921506404877
1777560234516682800,3.665682861328125,0.1512383669614792,-0.011694164015352726,0.20067289471626282
1777560234526723800,3.675723876953125,0.21079331636428833,-0.0066964756697416306,0.17070913314819336
1777560234536764000,3.685763916015625,0.17664891481399536,0.055791933089494705,0.21607501804828644
1777560234546805000,3.695804931640625,0.11381828784942627,0.07606951147317886,0.27778366208076477
1777560234556845800,3.705845703125,0.05213092267513275,0.1662048101425171,0.4070063829421997
1777560234566886000,3.715885986328125,-0.013222250156104565,0.2521902918815613,0.4654094874858856
1777560234576927000,3.725927001953125,-0.049135103821754456,0.319441556930542,0.5098422765731812
1777560234586966800,3.735966796875,-0.07095544785261154,0.38747572898864746,0.5757832527160645
1777560234597008000,3.7460078125,-0.10528966039419174,0.4559422433376312,0.6740533113479614
1777560234607047700,3.756047607421875,-0.17167720198631287,0.5007928013801575,0.7943543791770935
1777560234617088800,3.7660888671875,-0.2551731765270233,0.5491676330566406,0.9774933457374573
1777560234627129900,3.7761298828125,-0.24791714549064636,0.46272727847099304,1.08966863155365
1777560234637170000,3.786169921875,-0.19145497679710388,0.2129216492176056,1.1672272682189941
1777560234647210800,3.796210693359375,-0.08156682550907135,-0.022908182814717293,1.2414921522140503
1777560234657250800,3.806250732421875,0.035146910697221756,-0.1653313934803009,1.2674661874771118
1777560234667292000,3.8162919921875,0.05469131842255592,-0.26363876461982727,1.1735554933547974
1777560234677333000,3.8263330078125,-0.03798310458660126,-0.25928422808647156,1.021496057510376
1777560234687372800,3.836372802734375,-0.15221327543258667,-0.17030830681324005,0.8825017213821411
1777560234697414000,3.846413818359375,-0.2833371162414551,-0.029162077233195305,0.8164097666740417
1777560234707453700,3.85645361328125,-0.4173590838909149,0.15314993262290955,0.8130112886428833
1777560234717494800,3.866494873046875,-0.5905933976173401,0.3243372440338135,0.8603355884552002
1777560234727534800,3.876534912109375,-0.7668935656547546,0.41984033584594727,0.9136214852333069
1777560234737575700,3.88657568359375,-0.8476384878158569,0.3718908727169037,0.924785852432251
1777560234747616800,3.89661669921875,-0.7912077307701111,0.300104022026062,0.8495995402336121
1777560234757656800,3.90665673828125,-0.6795519590377808,0.2191103845834732,0.742266058921814
1777560234767698000,3.916697998046875,-0.5516334176063538,0.07757987827062607,0.6354589462280273
1777560234777737700,3.92673779296875,-0.4246995151042938,-0.03433582931756973,0.541939377784729
1777560234787778800,3.93677880859375,-0.3016963601112366,-0.0788513645529747,0.4780089259147644
1777560234797819000,3.94681884765625,-0.21526335179805756,0.0030593620613217354,0.43899205327033997
1777560234807860000,3.95685986328125,-0.1809016615152359,0.09188564121723175,0.4111503064632416
1777560234817900800,3.96690087890625,-0.15970610082149506,0.1740049570798874,0.3621688187122345
1777560234827940900,3.97694091796875,-0.14874719083309174,0.21922676265239716,0.2992284595966339
1777560234837982000,3.98698193359375,-0.13574057817459106,0.1770007461309433,0.2588125765323639
1777560234848021200,3.997021240234375,-0.09688293188810349,0.08573634177446365,0.23307660222053528
1777560234858062300,4.007062255859375,-0.057702288031578064,-0.005250334274023771,0.21352168917655945
1777560234868103200,4.017103271484375,-0.027813099324703217,-0.08395686000585556,0.18596944212913513
1777560234878143200,4.027143310546875,-0.005279836244881153,-0.11843594163656235,0.13533340394496918
1777560234888184300,4.037184326171875,-0.01046154834330082,-0.11761994659900665,0.09202748537063599
1777560234898224400,4.047224365234375,-0.024855364114046097,-0.035931896418333054,0.06337319314479828
1777560234908265500,4.057265380859375,-0.0767582356929779,0.11306371539831161,0.06836928427219391
1777560234918305300,4.06730517578125,-0.2207248955965042,0.23596234619617462,0.1666480004787445
1777560234928346400,4.077346435546875,-0.36119145154953003,0.2936488091945648,0.36774781346321106
1777560234938387500,4.087387451171875,-0.4524663984775543,0.2606273591518402,0.5425074100494385
1777560234948427500,4.097427490234375,-0.4720539450645447,0.15391848981380463,0.6365867853164673
1777560234958468400,4.10746826171875,-0.39354291558265686,-0.0017437230562791228,0.6807761192321777
1777560234968508400,4.11750830078125,-0.2603702247142792,-0.1263684779405594,0.6711594462394714
1777560234978549500,4.127549560546875,-0.13468696177005768,-0.19404181838035583,0.6128950715065002
1777560234988589300,4.13758935546875,-0.051992353051900864,-0.2110234647989273,0.5355970859527588
1777560234998630400,4.14763037109375,-0.00914833601564169,-0.1866406351327896,0.46060818433761597
1777560235008671200,4.157671142578125,0.04004477709531784,-0.17088617384433746,0.3882910907268524
1777560235018711300,4.167711181640625,0.11426401883363724,-0.16177809238433838,0.3245883584022522
1777560235028752400,4.17775244140625,0.21179749071598053,-0.1687835454940796,0.32882198691368103
1777560235038792400,4.18779248046875,0.28306031227111816,-0.22448359429836273,0.46531492471694946
1777560235048833300,4.197833251953125,0.3270975351333618,-0.3143138587474823,0.6889906525611877
1777560235058873300,4.207873291015625,0.3811401128768921,-0.3944114148616791,0.8597484827041626
1777560235068914400,4.21791455078125,0.3982541263103485,-0.4192645847797394,0.9390904307365417
1777560235078955500,4.22795556640625,0.35331615805625916,-0.39089179039001465,0.9423848986625671
1777560235088995600,4.23799560546875,0.26745450496673584,-0.3260451555252075,0.8737174272537231
1777560235099036400,4.248036376953125,0.17821869254112244,-0.259431928396225,0.7732909917831421
1777560235109076500,4.258076416015625,0.10277506709098816,-0.21934200823307037,0.6439199447631836
1777560235119117600,4.26811767578125,0.04058734327554703,-0.21343614161014557,0.5315021276473999
1777560235129158400,4.278158447265625,-0.0020868831779807806,-0.24753445386886597,0.4720369875431061
1777560235139198200,4.2881982421875,-0.0190922562032938,-0.29880642890930176,0.47010311484336853
1777560235149239300,4.2982392578125,-0.014539316296577454,-0.351772665977478,0.5147270560264587
1777560235159279400,4.308279296875,-0.0006091322284191847,-0.37326428294181824,0.5559297800064087
1777560235169320400,4.318320556640625,0.0010401634499430656,-0.37787899374961853,0.5609423518180847
1777560235179360500,4.328360595703125,-0.021020695567131042,-0.351004958152771,0.5207270383834839
1777560235189401300,4.3384013671875,-0.07635452598333359,-0.2685609459877014,0.43029460310935974
1777560235199442400,4.3484423828125,-0.14898623526096344,-0.14382466673851013,0.30367082357406616
1777560235209482500,4.358482421875,-0.23079347610473633,-0.04153185337781906,0.19825462996959686
1777560235219523300,4.3685234375,-0.28244104981422424,0.02126159891486168,0.14625923335552216
1777560235229563400,4.3785634765625,-0.2670767605304718,0.0299227312207222,0.18157035112380981
1777560235239604500,4.3886044921875,-0.22820965945720673,-0.0012235251488164067,0.21997123956680298
1777560235249644300,4.398644287109375,-0.19959214329719543,-0.0314520001411438,0.24505288898944855
1777560235259685400,4.408685302734375,-0.16134858131408691,-0.032172128558158875,0.2394181489944458
1777560235269726200,4.418726318359375,-0.11023186892271042,0.0054423571564257145,0.23038923740386963
1777560235279766300,4.428766357421875,-0.06271697580814362,0.09231775254011154,0.1932843029499054
1777560235289807400,4.438807373046875,-0.04495049640536308,0.19363850355148315,0.13525429368019104
1777560235299847400,4.448847412109375,-0.01779669150710106,0.2751385271549225,0.08805111795663834
1777560235309888300,4.45888818359375,0.02726665697991848,0.3512553870677948,0.04945259168744087
1777560235319929300,4.468929443359375,0.05136987194418907,0.4045325815677643,0.05912930890917778
1777560235329969400,4.478969482421875,0.0761955976486206,0.4248642325401306,0.11348229646682739
1777560235340010500,4.489010498046875,0.1092003732919693,0.3971540033817291,0.18824990093708038
1777560235350050600,4.499050537109375,0.14478552341461182,0.32726892828941345,0.2888188362121582
1777560235360091400,4.50909130859375,0.18034692108631134,0.2496541142463684,0.3799421489238739
1777560235370131500,4.51913134765625,0.2256329208612442,0.17252576351165771,0.40066447854042053
1777560235380172500,4.529172607421875,0.24497227370738983,0.11220137774944305,0.3833300769329071
1777560235390213400,4.53921337890625,0.1988431215286255,0.08930911123752594,0.297527015209198
1777560235400253200,4.549253173828125,0.11226864904165268,0.1063123494386673,0.16841824352741241
1777560235410294300,4.559294189453125,0.014060582965612411,0.1440269649028778,0.044829998165369034
1777560235420334300,4.569334228515625,-0.07091168314218521,0.18058256804943085,-0.026401769369840622
1777560235430375400,4.57937548828125,-0.12212347239255905,0.1822393238544464,-0.011024679988622665
1777560235440416300,4.589416259765625,-0.12567152082920074,0.15745949745178223,0.05538412183523178
1777560235450456300,4.599456298828125,-0.12197158485651016,0.11838826537132263,0.1019553542137146
1777560235460497400,4.609497314453125,-0.12633948028087616,0.08071194589138031,0.11975821107625961
1777560235470537500,4.619537353515625,-0.13086339831352234,0.04065987095236778,0.10626956820487976
1777560235480578300,4.629578369140625,-0.12157580256462097,0.01684131845831871,0.04630778729915619
1777560235490618400,4.639618408203125,-0.10220023989677429,0.017281275242567062,-0.04904349893331528
1777560235500659500,4.649659423828125,-0.09282384067773819,0.018305085599422455,-0.13895577192306519
1777560235510700500,4.659700439453125,-0.06522337347269058,0.009945157915353775,-0.21181240677833557
1777560235520740400,4.669740234375,-0.03117094747722149,0.004819747060537338,-0.2584971785545349
1777560235530781200,4.67978125,0.013000506907701492,0.0007248707115650177,-0.26154011487960815
1777560235540821200,4.6898212890625,0.0576314739882946,-0.009421231225132942,-0.24547839164733887
1777560235550862300,4.6998623046875,0.06997869163751602,-0.03488611429929733,-0.24856257438659668
1777560235560903400,4.7099033203125,0.06343676149845123,-0.06974323093891144,-0.24981515109539032
1777560235570943200,4.719943115234375,0.05722440406680107,-0.09863666445016861,-0.2523163855075836
1777560235580984300,4.729984375,0.053493987768888474,-0.12394141405820847,-0.2576380968093872
1777560235591024400,4.7400244140625,0.05347561091184616,-0.13888974487781525,-0.25266945362091064
1777560235601065500,4.7500654296875,0.05679832771420479,-0.13966067135334015,-0.26124027371406555
1777560235611105500,4.76010546875,0.05847451835870743,-0.1351868361234665,-0.2828614115715027
1777560235621146400,4.770146484375,0.04735678806900978,-0.13261190056800842,-0.29267454147338867
1777560235631187500,4.7801875,0.03767779469490051,-0.13630224764347076,-0.2872914969921112
1777560235641227500,4.7902275390625,0.04230882599949837,-0.1458781361579895,-0.25714653730392456
1777560235651268600,4.8002685546875,0.05396415293216705,-0.16138839721679688,-0.19962388277053833
1777560235661308400,4.810308349609375,0.04569532722234726,-0.1883789300918579,-0.14124992489814758
1777560235671349200,4.820349365234375,0.023707734420895576,-0.21294552087783813,-0.10068678110837936
1777560235681390300,4.830390380859375,-0.0012169702677056193,-0.20587360858917236,-0.08808168023824692
1777560235691430400,4.840430419921875,-0.0350969061255455,-0.17350128293037415,-0.09166523069143295
1777560235701471200,4.85047119140625,-0.060369785875082016,-0.1466216742992401,-0.09392465651035309
1777560235711511300,4.86051123046875,-0.071958526968956,-0.12721681594848633,-0.09207962453365326
1777560235721552400,4.870552490234375,-0.07405317574739456,-0.11214768141508102,-0.08737804740667343
1777560235731593500,4.880593505859375,-0.07903940975666046,-0.10562293976545334,-0.0776071771979332
1777560235741633500,4.890633544921875,-0.0747280865907669,-0.11454369127750397,-0.06632211804389954
1777560235751674400,4.90067431640625,-0.0603020116686821,-0.1409348100423813,-0.04148947447538376
1777560235761714400,4.91071435546875,-0.0520385280251503,-0.1825353056192398,-0.010887201875448227
1777560235771755500,4.920755615234375,-0.06451410800218582,-0.19799122214317322,-0.0026710834354162216
1777560235781795600,4.930795654296875,-0.09022951126098633,-0.190446674823761,-0.024455787613987923
1777560235791836400,4.94083642578125,-0.11224586516618729,-0.1760951578617096,-0.03898386284708977
1777560235801877500,4.95087744140625,-0.14718127250671387,-0.15433189272880554,-0.04030582681298256
1777560235811917300,4.960917236328125,-0.19407260417938232,-0.15204450488090515,-0.03659657761454582
1777560235821958400,4.97095849609375,-0.24266041815280914,-0.18669648468494415,-0.026759907603263855
1777560235831998500,4.98099853515625,-0.29473426938056946,-0.25886285305023193,0.003440604778006673
1777560235842039300,4.991039306640625,-0.33617910742759705,-0.3406828045845032,0.026295695453882217
1777560235852080600,5.00108056640625,-0.3765971064567566,-0.4298819303512573,0.025634700432419777
1777560235862120700,5.01112060546875,-0.4202949106693268,-0.5126973390579224,0.0325029119849205
1777560235872161500,5.02116162109375,-0.44642770290374756,-0.5744781494140625,0.033846478909254074
1777560235882201600,5.03120166015625,-0.47276848554611206,-0.6101343631744385,0.019742486998438835
1777560235892242700,5.04124267578125,-0.49096933007240295,-0.6348354816436768,0.015232956036925316
1777560235902283800,5.05128369140625,-0.499271959066391,-0.6824622750282288,0.020659537985920906
1777560235912323600,5.061323486328125,-0.5193910598754883,-0.7778391242027283,0.02548811584711075
1777560235922364700,5.07136474609375,-0.5503858327865601,-0.9040870666503906,0.03355967253446579
1777560235932404500,5.081404541015625,-0.588349461555481,-1.0229289531707764,0.038829267024993896
1777560235942445600,5.091445556640625,-0.6444718241691589,-1.0956369638442993,0.023311514407396317
1777560235952486400,5.101486328125,-0.6834293007850647,-1.0571428537368774,-0.01945219375193119
1777560235962526500,5.1115263671875,-0.7117907404899597,-0.9553670287132263,-0.07367581874132156
1777560235972567600,5.121567626953125,-0.7176057696342468,-0.8339886665344238,-0.13438017666339874
1777560235982607600,5.131607666015625,-0.6933579444885254,-0.7065607905387878,-0.19045554101467133
1777560235992648700,5.141648681640625,-0.6543573141098022,-0.5918784141540527,-0.2358645796775818
1777560236002688800,5.151688720703125,-0.5910191535949707,-0.4820035994052887,-0.27398863434791565
1777560236012729600,5.1617294921875,-0.5380784273147583,-0.36798036098480225,-0.3284079432487488
1777560236022770700,5.171770751953125,-0.503079354763031,-0.29274943470954895,-0.40076979994773865
1777560236032810800,5.181810791015625,-0.4535943567752838,-0.22654776275157928,-0.4894794225692749
1777560236042851600,5.1918515625,-0.4008922874927521,-0.16367121040821075,-0.5519506931304932
1777560236052891400,5.201891357421875,-0.34355229139328003,-0.1006418988108635,-0.5889944434165955
1777560236062932500,5.211932373046875,-0.2925874888896942,-0.04243571311235428,-0.6115640997886658
1777560236072973600,5.2219736328125,-0.2558329403400421,0.0028255092911422253,-0.6202558875083923
1777560236083013600,5.232013671875,-0.20685282349586487,0.05380736291408539,-0.5751481652259827
1777560236093054500,5.242054443359375,-0.1354777067899704,0.1004347875714302,-0.5225449204444885
1777560236103094500,5.252094482421875,-0.09596874564886093,0.14319753646850586,-0.5216227769851685
1777560236113135600,5.262135498046875,-0.08423299342393875,0.17584922909736633,-0.5299180150032043
1777560236123176400,5.272176513671875,-0.05847655609250069,0.18336082994937897,-0.5479273200035095
1777560236133216500,5.282216552734375,-0.025385452434420586,0.1879313588142395,-0.6023255586624146
1777560236143257600,5.292257568359375,-0.008761661127209663,0.19864574074745178,-0.6547995805740356
1777560236153297700,5.302297607421875,0.014673356898128986,0.2021866887807846,-0.6772175431251526
1777560236163338800,5.3123388671875,0.03130415081977844,0.20034803450107574,-0.6670554280281067
1777560236173379600,5.322379638671875,0.04441196471452713,0.21009306609630585,-0.6397063732147217
1777560236183419600,5.332419677734375,0.05962161719799042,0.23420770466327667,-0.6159974336624146
1777560236193460700,5.342460693359375,0.07924831658601761,0.2714306712150574,-0.5834709405899048
1777560236203500500,5.35250048828125,0.08512983471155167,0.3171508312225342,-0.5899795293807983
1777560236213541600,5.362541748046875,0.05643879994750023,0.3737589716911316,-0.6295194625854492
1777560236223582500,5.37258251953125,0.037642281502485275,0.43468379974365234,-0.678946316242218
1777560236233622500,5.38262255859375,0.04168975353240967,0.4972230792045593,-0.6952802538871765
1777560236243663600,5.39266357421875,0.05062679946422577,0.534648597240448,-0.7072198987007141
1777560236253703700,5.40270361328125,0.06804520636796951,0.5849013924598694,-0.7540143132209778
1777560236263744500,5.41274462890625,0.09337339550256729,0.6280229091644287,-0.7863900661468506
1777560236273785600,5.42278564453125,0.12995830178260803,0.6501103639602661,-0.7984688878059387
1777560236283825700,5.43282568359375,0.15112784504890442,0.6508219242095947,-0.7687502503395081
1777560236293866800,5.44286669921875,0.1649637669324875,0.6202613711357117,-0.7006364464759827
1777560236303906600,5.452906494140625,0.18517641723155975,0.5668904781341553,-0.6484376192092896
1777560236313947600,5.46294775390625,0.18665100634098053,0.5242564678192139,-0.6315441131591797
1777560236323988700,5.47298876953125,0.17271220684051514,0.5035308599472046,-0.6497650146484375
1777560236334028500,5.483028564453125,0.1538945734500885,0.4853012263774872,-0.6616467237472534
1777560236344069400,5.4930693359375,0.15211567282676697,0.4686523973941803,-0.6650983691215515
1777560236354109400,5.503109375,0.17603512108325958,0.44560644030570984,-0.6485401391983032
1777560236364150500,5.513150634765625,0.2024305760860443,0.4341002404689789,-0.5768093466758728
1777560236374191600,5.523191650390625,0.2324228286743164,0.4286644756793976,-0.5061112642288208
1777560236384231700,5.533231689453125,0.2577187716960907,0.4009076952934265,-0.42320767045021057
1777560236394272500,5.5432724609375,0.2877965271472931,0.36765971779823303,-0.3439171016216278
1777560236404312600,5.5533125,0.3100581467151642,0.34192049503326416,-0.3081589937210083
1777560236414353700,5.563353759765625,0.324897825717926,0.32840654253959656,-0.30162757635116577
1777560236424394500,5.57339453125,0.34464237093925476,0.32948577404022217,-0.2796424329280853
1777560236434434600,5.5834345703125,0.3755379617214203,0.33034783601760864,-0.23662146925926208
1777560236444475600,5.5934755859375,0.41028282046318054,0.3254531919956207,-0.2085469365119934
1777560236454515700,5.603515625,0.4392563998699188,0.3340855538845062,-0.1762704849243164
1777560236464556800,5.613556884765625,0.47898417711257935,0.33321839570999146,-0.1277896612882614
1777560236474597600,5.62359765625,0.5357060432434082,0.33205166459083557,-0.06832579523324966
1777560236484637400,5.633637451171875,0.5844246745109558,0.33361175656318665,-0.025223106145858765
1777560236494678500,5.643678466796875,0.6158169507980347,0.33487704396247864,0.00480110477656126
1777560236504718600,5.653718505859375,0.6213820576667786,0.35519900918006897,0.03512270748615265
1777560236514759400,5.663759521484375,0.6002941131591797,0.38783445954322815,0.08279941231012344
1777560236524800500,5.673800537109375,0.5933181643486023,0.4383123517036438,0.14887778460979462
1777560236534840600,5.683840576171875,0.6039451956748962,0.4583800733089447,0.22145850956439972
1777560236544881700,5.693881591796875,0.6325815916061401,0.4391538202762604,0.28633052110671997
1777560236554921700,5.703921630859375,0.6632803678512573,0.41675132513046265,0.32779884338378906
1777560236564962600,5.713962646484375,0.7012999057769775,0.39559662342071533,0.33217373490333557
1777560236575003600,5.724003662109375,0.754677414894104,0.3951662480831146,0.2900385558605194
1777560236585043700,5.734043701171875,0.7927065491676331,0.39897117018699646,0.223542720079422
1777560236595084500,5.74408447265625,0.7995032072067261,0.40884751081466675,0.1643582284450531
1777560236605125600,5.754125732421875,0.7807939648628235,0.41779741644859314,0.13852559030056
1777560236615165700,5.764165771484375,0.7463592886924744,0.40655115246772766,0.17990578711032867
1777560236625206800,5.774206787109375,0.7322019338607788,0.3551338315010071,0.2884453237056732
1777560236635246600,5.78424658203125,0.7167838215827942,0.2781490385532379,0.3754926025867462
1777560236645287400,5.794287353515625,0.6959236860275269,0.1999334990978241,0.42971113324165344
1777560236655328500,5.80432861328125,0.6727033257484436,0.13214834034442902,0.47030195593833923
1777560236665368600,5.81436865234375,0.6544724106788635,0.06961183995008469,0.5089080929756165
1777560236675409700,5.82440966796875,0.6117843389511108,0.01647964119911194,0.5408796072006226
1777560236685449700,5.83444970703125,0.5528027415275574,0.0037546607200056314,0.5470396280288696
1777560236695490600,5.844490478515625,0.4921191930770874,0.020520323887467384,0.5386857986450195
1777560236705531600,5.85453173828125,0.43350744247436523,0.052233707159757614,0.5209136605262756
1777560236715571700,5.86457177734375,0.3861575126647949,0.07980328053236008,0.5108394622802734
1777560236725612500,5.874612548828125,0.3697753846645355,0.07734308391809464,0.5213232040405273
1777560236735652600,5.884652587890625,0.35876429080963135,0.007188759744167328,0.558254063129425
1777560236745693700,5.894693603515625,0.3570865988731384,-0.12283448129892349,0.6484284400939941
1777560236755734800,5.90473486328125,0.3498462736606598,-0.2774706780910492,0.7605085968971252
1777560236765774600,5.914774658203125,0.32966405153274536,-0.416282057762146,0.8807324767112732
1777560236775815400,5.9248154296875,0.30363085865974426,-0.49439042806625366,0.9630734324455261
1777560236785856500,5.9348564453125,0.2570819854736328,-0.4901070296764374,0.9806913137435913
1777560236795896600,5.944896484375,0.18185940384864807,-0.41467779874801636,0.9025933146476746
1777560236805937400,5.9549375,0.07848674058914185,-0.32109031081199646,0.7841312289237976
1777560236815977500,5.9649775390625,-0.000877056154422462,-0.257495641708374,0.6901522278785706
1777560236826018600,5.9750185546875,-0.031071273609995842,-0.22639846801757812,0.6595600247383118
1777560236836059600,5.9850595703125,-0.02191293053328991,-0.2531818747520447,0.7013769745826721
1777560236846100000,5.995099853515625,0.004639224149286747,-0.30880242586135864,0.7867873907089233
1777560236856141000,6.00514111328125,0.01727139763534069,-0.3721499741077423,0.8562716841697693
1777560236866180900,6.015180908203125,0.0075021591037511826,-0.4128060042858124,0.898689329624176
1777560236876222000,6.025221923828125,-0.03396006301045418,-0.4176364243030548,0.8790628910064697
1777560236886262800,6.0352626953125,-0.09030558913946152,-0.38879528641700745,0.8176295757293701
1777560236896302800,6.045302734375,-0.13636362552642822,-0.3272480368614197,0.7204399108886719
1777560236906344000,6.055343994140625,-0.17961576581001282,-0.2621517479419708,0.630369246006012
1777560236916385000,6.065385009765625,-0.20746976137161255,-0.22509783506393433,0.5738598704338074
1777560236926425000,6.075425048828125,-0.2227811962366104,-0.22277051210403442,0.5519187450408936
1777560236936466000,6.0854658203125,-0.24732647836208344,-0.2593176066875458,0.5684505701065063
1777560236946506000,6.095506103515625,-0.27558937668800354,-0.3272145092487335,0.6089872121810913
1777560236956547000,6.105547119140625,-0.3228738009929657,-0.3899039924144745,0.6202154159545898
1777560236966588000,6.115587890625,-0.3890489935874939,-0.41971439123153687,0.5783694982528687
1777560236976628000,6.1256279296875,-0.43665701150894165,-0.4213663339614868,0.48317667841911316
1777560236986669000,6.1356689453125,-0.4534691572189331,-0.3688064515590668,0.30847325921058655
1777560236996709000,6.145709228515625,-0.47009262442588806,-0.3074493408203125,0.1319514960050583
1777560237006750200,6.155750244140625,-0.462021142244339,-0.26983964443206787,0.03007199987769127
1777560237016791000,6.165791015625,-0.4413371682167053,-0.277079701423645,0.008479621261358261
1777560237026830800,6.175830810546875,-0.4323705732822418,-0.30087506771087646,0.05209207907319069
1777560237036872000,6.185871826171875,-0.4280807375907898,-0.32958924770355225,0.11979709565639496
1777560237046913000,6.1959130859375,-0.4155673682689667,-0.3634982705116272,0.1973937600851059
1777560237056952800,6.205952880859375,-0.4080122411251068,-0.38816073536872864,0.2210189253091812
1777560237066994000,6.215993896484375,-0.4057798683643341,-0.36473676562309265,0.15603628754615784
1777560237077034000,6.226033935546875,-0.4000122547149658,-0.2974354922771454,0.030806727707386017
1777560237087075000,6.236074951171875,-0.3950224220752716,-0.2298431545495987,-0.09004374593496323
1777560237097116000,6.246115966796875,-0.37541621923446655,-0.17832963168621063,-0.18234305083751678
1777560237107156000,6.256156005859375,-0.34512871503829956,-0.16123788058757782,-0.23968496918678284
1777560237117197000,6.266197021484375,-0.31122642755508423,-0.17933645844459534,-0.256888210773468
1777560237127238100,6.276238037109375,-0.2710716426372528,-0.1882326304912567,-0.21454481780529022
1777560237137278000,6.28627783203125,-0.23255327343940735,-0.17717412114143372,-0.13930971920490265
1777560237147319000,6.296319091796875,-0.19650588929653168,-0.15899766981601715,-0.07008493691682816
1777560237157359000,6.306359130859375,-0.159759059548378,-0.1402740627527237,-0.035587944090366364
1777560237167400200,6.316400146484375,-0.11961178481578827,-0.10967851430177689,-0.045896969735622406
1777560237177441000,6.32644091796875,-0.08142445236444473,-0.07407178729772568,-0.09613323956727982
1777560237187480800,6.336480712890625,-0.05848923698067665,-0.048115722835063934,-0.1423037052154541
1777560237197522000,6.34652197265625,-0.03595356643199921,-0.03839145600795746,-0.1671517938375473
1777560237207563000,6.35656298828125,-0.030779313296079636,-0.014973079785704613,-0.1933417171239853
1777560237217603000,6.36660302734375,-0.02965546026825905,0.023166583850979805,-0.19814738631248474
1777560237227644000,6.376643798828125,-0.023310909047722816,0.05447378754615784,-0.175376757979393
1777560237237684000,6.38668408203125,-0.018120141699910164,0.09104884415864944,-0.14280842244625092
1777560237247725000,6.39672509765625,-0.005591265857219696,0.11624345928430557,-0.11111615598201752
1777560237257766000,6.406765869140625,0.012993603944778442,0.1453683227300644,-0.09771246463060379
1777560237267806000,6.416805908203125,0.0339345745742321,0.16962504386901855,-0.08989463001489639
1777560237277847000,6.426846923828125,0.05292477831244469,0.19244195520877838,-0.09197668731212616
1777560237287888100,6.43688818359375,0.05561120808124542,0.20588667690753937,-0.08775029331445694
1777560237297928200,6.44692822265625,0.05927997827529907,0.20765022933483124,-0.08291399478912354
1777560237307969000,6.456968994140625,0.05450156703591347,0.2032211273908615,-0.07314690202474594
1777560237318008800,6.4670087890625,0.048296667635440826,0.1908946931362152,-0.06567966938018799
1777560237328050000,6.4770498046875,0.035783104598522186,0.17788569629192352,-0.05907587334513664
1777560237338091000,6.487091064453125,0.026074551045894623,0.1839180290699005,-0.06633032858371735
1777560237348130800,6.497130859375,0.016142189502716064,0.1991274505853653,-0.06935043632984161
1777560237358172000,6.507171875,0.011833994649350643,0.20035703480243683,-0.04947765916585922
1777560237368213000,6.517212890625,0.01707989163696766,0.19725379347801208,-0.025213200598955154
1777560237378253000,6.527253173828125,0.02262699045240879,0.18920092284679413,-0.005707675591111183
1777560237388294000,6.5372939453125,0.029848182573914528,0.17635148763656616,0.00805698987096548
1777560237398334000,6.547333984375,0.030990412458777428,0.16258375346660614,0.012057590298354626
1777560237408375000,6.557375,0.03257812559604645,0.14706739783287048,0.00921270065009594
1777560237418416000,6.567416015625,0.02349914237856865,0.13612952828407288,-0.0008479226380586624
1777560237428456200,6.577456298828125,0.014915112406015396,0.12453459203243256,-0.014712139964103699
1777560237438497000,6.5874970703125,0.007112315855920315,0.10799688845872879,-0.024692868813872337
1777560237448538000,6.5975380859375,-0.004411985166370869,0.09501557797193527,-0.031951311975717545
1777560237458578200,6.607578125,-0.004523571580648422,0.09087862819433212,-0.028838075697422028
1777560237468619000,6.617618896484375,-0.004215373657643795,0.08974501490592957,-0.008636170998215675
1777560237478660000,6.62766015625,0.0031008627265691757,0.07137346267700195,0.02347143180668354
1777560237488700000,6.637699951171875,0.008770566433668137,0.04899534210562706,0.044042035937309265
1777560237498741000,6.647740966796875,0.00794978067278862,0.04518089443445206,0.039578311145305634
1777560237508781000,6.657781005859375,0.005722044967114925,0.05961722880601883,0.029028598219156265
1777560237518822000,6.66782177734375,0.005846681073307991,0.07228508591651917,0.01488668192178011
1777560237528863000,6.677863037109375,0.0022636656649410725,0.08035219460725784,0.0038860957138240337
1777560237538903000,6.687903076171875,-0.003681574948132038,0.07749702036380768,0.004648292437195778
1777560237548944000,6.69794384765625,-0.000012739910744130611,0.06442593038082123,0.0070841191336512566
1777560237558985000,6.70798486328125,0.009977043606340885,0.037688590586185455,0.014034969732165337
1777560237569025000,6.71802490234375,0.02093685232102871,0.017788933590054512,0.010049233213067055
1777560237579066000,6.728066162109375,0.025973955169320107,0.008460411801934242,0.01224847137928009
1777560237589107000,6.73810693359375,0.031231701374053955,0.011769188567996025,0.01566271111369133
1777560237599147000,6.74814697265625,0.028948839753866196,0.022419702261686325,0.013107940554618835
1777560237609188000,6.75818798828125,0.02318679168820381,0.03536967188119888,0.00812252052128315
1777560237619228200,6.768228271484375,0.02003893442451954,0.048984553664922714,0.0020835360046476126
1777560237629269200,6.778269287109375,0.019287222996354103,0.05852601304650307,-0.005068034399300814
1777560237639310000,6.78831005859375,0.017188651487231255,0.057559285312891006,-0.006385766435414553
1777560237649350000,6.798349853515625,0.016131745651364326,0.04769334942102432,-0.00148027203977108
1777560237659391000,6.808390869140625,0.016914449632167816,0.03491949662566185,0.012227816507220268
1777560237669431800,6.818431884765625,0.016929561272263527,0.02616652101278305,0.02107313834130764
1777560237679471900,6.828471923828125,0.011963564902544022,0.033236149698495865,0.015634164214134216
1777560237689513000,6.838512939453125,0.004158605821430683,0.03620326146483421,0.009490535594522953
1777560237699554000,6.848553955078125,0.0007316498667933047,0.03780834749341011,0.002864590846002102
1777560237709594000,6.858593994140625,0.0033491719514131546,0.03253912925720215,-0.0006796247325837612
1777560237719635000,6.868635009765625,0.006951363757252693,0.01979803293943405,0.007249671034514904
1777560237729675000,6.878675048828125,0.009411126375198364,0.004532362334430218,0.020085008814930916
1777560237739716000,6.888716064453125,0.00812162272632122,-0.013556625694036484,0.02774692140519619
1777560237749757000,6.8987568359375,0.013724548742175102,-0.028940660879015923,0.0341220498085022
1777560237759797000,6.908796875,0.010925564914941788,-0.03408322483301163,0.02449791505932808
1777560237769838000,6.918838134765625,0.007818887010216713,-0.02486816793680191,-0.00001803133636713028
1777560237779879200,6.928879150390625,0.0066193994134664536,-0.01144610159099102,-0.03350568562746048
1777560237789919000,6.9389189453125,0.006624959874898195,0.0009343490237370133,-0.05765640735626221
1777560237799959800,6.948959716796875,0.008181311190128326,-0.004438045900315046,-0.06304984539747238
1777560237810001000,6.9590009765625,0.012709316797554493,-0.023315580561757088,-0.06463634222745895
1777560237820041000,6.969041015625,0.01729554682970047,-0.038753390312194824,-0.0668741911649704
1777560237830082000,6.97908203125,0.01743985526263714,-0.05859718471765518,-0.0678759217262268
1777560237840123000,6.989122802734375,0.018880093470215797,-0.0695614218711853,-0.09183052182197571
1777560237850162200,6.999162109375,0.020600130781531334,-0.062472905963659286,-0.14742395281791687
1777560237860203300,7.009203369140625,0.019100237637758255,-0.04893232882022858,-0.20341238379478455
1777560237870243300,7.019243408203125,0.022524630650877953,-0.0526261180639267,-0.21952536702156067
1777560237880284400,7.029284423828125,0.0169178768992424,-0.06187128275632858,-0.2126847803592682
1777560237890325200,7.0393251953125,0.015738263726234436,-0.07358387857675552,-0.1610817164182663
1777560237900365300,7.049365234375,0.015258096158504486,-0.08266845345497131,-0.12585660815238953
1777560237910406400,7.059406494140625,0.006153147667646408,-0.08021228760480881,-0.11249427497386932
1777560237920447200,7.069447265625,0.004752857610583305,-0.06748876720666885,-0.09607109427452087
1777560237930487300,7.0794873046875,0.004830322694033384,-0.04701390489935875,-0.09689412266016006
1777560237940528400,7.0895283203125,0.007016245275735855,-0.012913992628455162,-0.11164750158786774
1777560237950569500,7.099569580078125,0.012043260969221592,0.012373306788504124,-0.12639331817626953
1777560237960609500,7.109609619140625,0.022314274683594704,0.013438038527965546,-0.12781597673892975
1777560237970650400,7.119650390625,0.02470792457461357,-0.006250178441405296,-0.11793458461761475
1777560237980691500,7.12969140625,0.026054684072732925,-0.04274400696158409,-0.09078764915466309
1777560237990731300,7.139731201171875,0.02556709386408329,-0.07589272409677505,-0.044900864362716675
1777560238000772400,7.1497724609375,0.01985354721546173,-0.08783593773841858,-0.016018085181713104
1777560238010812200,7.159812255859375,0.012506884522736073,-0.06359927356243134,-0.02068830095231533
1777560238020853200,7.169853271484375,0.010568901896476746,-0.021279513835906982,-0.053860899060964584
1777560238030894300,7.179894287109375,0.005485793109983206,0.026950834318995476,-0.12448836863040924
1777560238040934400,7.189934326171875,0.0003264510305598378,0.07047354429960251,-0.21318361163139343
1777560238050975200,7.199975341796875,-0.0016996830236166716,0.08609817177057266,-0.2660831809043884
1777560238061016300,7.210016357421875,0.007842157036066055,0.07641810923814774,-0.2831804156303406
1777560238071056400,7.220056396484375,0.028507055714726448,0.05168735235929489,-0.2690413296222687
1777560238081097500,7.230097412109375,0.04626182094216347,0.019985882565379143,-0.2290063053369522
1777560238091138300,7.24013818359375,0.06258406490087509,-0.001107820076867938,-0.20458444952964783
1777560238101178400,7.250178466796875,0.06500035524368286,-0.005157422740012407,-0.2018246054649353
1777560238111219500,7.260219482421875,0.05993198975920677,-0.003115192987024784,-0.23972547054290771
1777560238121260300,7.27026025390625,0.05800386145710945,0.011060813441872597,-0.3054932951927185
1777560238131300400,7.28030029296875,0.05217669904232025,0.04705305024981499,-0.36878857016563416
1777560238141341400,7.290341552734375,0.024261178448796272,0.07500932365655899,-0.4595637619495392
1777560238151382500,7.300382568359375,0.015382432378828526,0.08767832815647125,-0.5487253069877625
1777560238161422300,7.31042236328125,0.03600035980343819,0.07351510971784592,-0.6904808878898621
1777560238171463200,7.320463134765625,0.06672311574220657,0.06948374211788177,-0.8926790952682495
1777560238181504300,7.330504150390625,0.10620394349098206,0.12577204406261444,-1.18016517162323
1777560238191544300,7.34054443359375,0.07949839532375336,0.26305708289146423,-1.5506885051727295
1777560238201585400,7.35058544921875,-0.040481798350811005,0.4325025975704193,-1.9986263513565063
1777560238211626200,7.360626220703125,-0.2197236567735672,0.5872922539710999,-2.4688801765441895
1777560238221666300,7.370666259765625,-0.4408072829246521,0.7062783241271973,-2.823925256729126
1777560238231707400,7.380707275390625,-0.6979228258132935,0.7828478217124939,-3.149343252182007
1777560238241748200,7.390748291015625,-0.9305810928344727,0.8333533406257629,-3.480442523956299
1777560238251788300,7.400788330078125,-1.012493371963501,0.8225876688957214,-3.6423933506011963
1777560238261829400,7.410829345703125,-0.9982044100761414,0.7470479011535645,-3.660616397857666
1777560238271870500,7.420870361328125,-1.0460083484649658,0.5680307149887085,-3.5700385570526123
1777560238281910500,7.43091064453125,-1.1139967441558838,0.46735525131225586,-3.479632616043091
1777560238291951400,7.440951416015625,-1.0794163942337036,0.49057772755622864,-3.383943557739258
1777560238301991200,7.4509912109375,-0.924057126045227,0.44464191794395447,-3.2621877193450928
1777560238312032500,7.461032470703125,-0.7330174446105957,0.3566282093524933,-3.1467466354370117
1777560238322073300,7.4710732421875,-0.509501039981842,0.25719934701919556,-3.100006103515625
1777560238332113200,7.481113037109375,-0.2817271649837494,0.1908683031797409,-3.2220067977905273
1777560238342154200,7.491154296875,-0.04134462773799896,0.08856242895126343,-3.5649189949035645
1777560238352195300,7.5011953125,0.3049235939979553,-0.06446889042854309,-4.038516521453857
1777560238362235400,7.5112353515625,0.6009592413902283,-0.36075353622436523,-4.683567523956299
1777560238372276200,7.521276123046875,0.44177207350730896,-0.7465823888778687,-6.109663009643555
1777560238382317300,7.5313173828125,0.4005180895328522,-0.2819816768169403,-7.46349573135376
1777560238392357400,7.541357421875,0.5471857190132141,-0.3437304198741913,-8.164420127868652
1777560238402398500,7.5513984375,1.0346935987472534,-0.6177585124969482,-8.521716117858887
1777560238412439300,7.561439208984375,1.3585494756698608,-0.8085957765579224,-8.504928588867188
1777560238422479400,7.571479248046875,1.223308801651001,-0.8385217189788818,-8.104284286499023
1777560238432520400,7.5815205078125,0.8544718623161316,-0.5339664816856384,-7.3843560218811035
1777560238442561300,7.591561279296875,0.3896109461784363,-0.029765387997031212,-6.3538737297058105
1777560238452601300,7.601601318359375,-0.042190153151750565,0.3734862208366394,-5.1130523681640625
1777560238462642400,7.611642333984375,-0.39795783162117004,0.7493911385536194,-3.8114922046661377
1777560238472683500,7.62168359375,-0.6942566633224487,1.2113063335418701,-2.613532066345215
1777560238482723300,7.631723388671875,-0.9304332733154297,1.776867389678955,-1.7582051753997803
1777560238492764200,7.64176416015625,-1.0348873138427734,2.170844078063965,-1.3595285415649414
1777560238502805200,7.65180517578125,-1.0052855014801025,2.347792148590088,-1.4058082103729248
1777560238512845300,7.66184521484375,-0.9585530161857605,2.381720542907715,-1.8343039751052856
1777560238522886400,7.671886474609375,-0.9056551456451416,2.2361795902252197,-2.4926021099090576
1777560238532927200,7.68192724609375,-0.814445436000824,2.0294811725616455,-3.2491183280944824
1777560238542967300,7.69196728515625,-0.6944109201431274,1.933748483657837,-3.95039439201355
1777560238553008400,7.70200830078125,-0.6158314347267151,1.9466869831085205,-4.507686614990234
1777560239657485000,8.806485107421874,-0.025601044297218323,-0.1076241284608841,0.014101576060056686
1777560239667525000,8.816525146484375,-0.0017585615860298276,-0.11756863445043564,-0.032661400735378265
1777560239677566000,8.82656591796875,-0.006035932805389166,-0.07905010879039764,-0.05872146040201187
1777560239687607000,8.83660693359375,-0.012141495943069458,-0.056120291352272034,-0.05138711631298065
1777560239697648000,8.846648193359375,-0.014536736533045769,-0.08687300980091095,-0.03394462168216705
1777560239707688200,8.856688232421876,-0.019202465191483498,-0.10792656242847443,-0.020598117262125015
1777560239717729000,8.86672900390625,-0.02632109448313713,-0.14032712578773499,-0.00916010607033968
1777560239727770000,8.87677001953125,-0.03011183813214302,-0.1520431637763977,0.01698308065533638
1777560239737810200,8.88681005859375,-0.029993031173944473,-0.1080159917473793,0.04917789623141289
1777560239747851000,8.89685107421875,-0.02768632210791111,-0.05057433992624283,0.0735292136669159
1777560239757892000,8.90689208984375,-0.01884835585951805,-0.006435640621930361,0.0847560316324234
1777560239767933200,8.91693310546875,-0.02232298254966736,0.014397735707461834,0.09271781891584396
1777560239777973200,8.92697314453125,-0.04020645096898079,0.009684239514172077,0.10081880539655685
1777560239788014000,8.93701416015625,-0.03617488592863083,-0.00018480257131159306,0.11127407103776932
1777560239798055200,8.94705517578125,-0.04509807378053665,-0.004837877582758665,0.08320008963346481
1777560239808095000,8.957094970703125,-0.04910825937986374,-0.006747896783053875,0.040672607719898224
1777560239818136000,8.967135986328126,-0.053147122263908386,-0.02325921319425106,0.0036732791922986507
1777560239828177000,8.977177001953125,-0.05587339773774147,-0.05964784696698189,-0.02470909245312214
1777560239838218000,8.987218017578124,-0.05088479444384575,-0.07525774836540222,-0.03850812092423439
1777560239848257300,8.99725732421875,-0.04839567095041275,-0.08796296268701553,-0.03552199527621269
1777560239858298400,9.00729833984375,-0.036331817507743835,-0.11194179207086563,-0.015142951160669327
1777560239868339200,9.017339111328125,-0.028507979586720467,-0.11132021248340607,0.016050919890403748
1777560239878380300,9.02738037109375,-0.03209010139107704,-0.10992083698511124,0.03289657086133957
1777560239888420400,9.03742041015625,-0.026045259088277817,-0.09155222028493881,0.031835298985242844
1777560239898461400,9.04746142578125,-0.018156636506319046,-0.04737386852502823,0.011826789937913418
1777560239908502300,9.057502197265626,-0.029651105403900146,-0.038322050124406815,-0.017903676256537437
1777560239918542300,9.067542236328125,-0.02787625789642334,-0.049607932567596436,-0.011106126010417938
1777560239928583400,9.07758349609375,-0.011075705289840698,-0.04227038472890854,-0.014881156384944916
1777560239938624300,9.087624267578125,-0.016764722764492035,-0.030271198600530624,-0.01026204414665699
1777560239948665300,9.097665283203124,-0.018224280327558517,-0.07286272197961807,0.009916238486766815
1777560239958705400,9.107705322265625,-0.010570621117949486,-0.07699088752269745,0.022384092211723328
1777560239968746500,9.11774658203125,-0.010080600157380104,-0.07839597016572952,0.030607933178544044
1777560239978787300,9.127787353515625,-0.01907905749976635,-0.061896201223134995,0.020299993455410004
1777560239988827100,9.1378271484375,-0.016925359144806862,-0.027967797592282295,0.013887900859117508
1777560239998868200,9.1478681640625,-0.017973393201828003,0.0017063738778233528,0.01158512569963932
1777560240008909300,9.157909423828125,-0.01939285919070244,0.03472185134887695,0.003714685793966055
1777560240018950100,9.1679501953125,-0.017056502401828766,0.05642642825841904,0.00311362836509943
1777560240028990200,9.177990234375,-0.014177973382174969,0.07704292237758636,0.022229328751564026
1777560240039031300,9.18803125,-0.02046090178191662,0.08171277493238449,0.03830629959702492
1777560240049072400,9.198072265625,-0.018926387652754784,0.08497674018144608,0.05388579145073891
1777560240059113200,9.20811328125,-0.023642636835575104,0.08029826730489731,0.08094564825296402
1777560240069153300,9.2181533203125,-0.02908853441476822,0.06847117096185684,0.10083679854869843
1777560240079194400,9.2281943359375,-0.03876116871833801,0.07821229845285416,0.12998643517494202
1777560240089235200,9.238235107421875,-0.060923509299755096,0.06207362562417984,0.15511421859264374
1777560240099275300,9.248275146484374,-0.047084126621484756,-0.0154280886054039,0.07427582144737244
1777560240109316400,9.25831640625,-0.000526212970726192,-0.0478571355342865,-0.02438470534980297
1777560240119357400,9.268357421875,0.01269928365945816,-0.04256921261548996,-0.08402259647846222
1777560240129398300,9.278398193359376,0.008105064742267132,-0.03948766738176346,-0.0969969853758812
1777560240139438300,9.288438232421875,-0.01617334969341755,0.0008267817320302129,-0.03864513337612152
1777560240149479400,9.2984794921875,-0.03183833137154579,0.05315336957573891,0.02749846689403057
1777560240159520500,9.3085205078125,-0.024401800706982613,0.03449511155486107,0.03827136754989624
1777560240169561300,9.318561279296874,-0.020917054265737534,0.0024647421669214964,0.025181664153933525
1777560240179601400,9.328601318359375,-0.025067003443837166,-0.019658835604786873,-0.0009088027290999889
1777560240189642500,9.338642578125,-0.022550150752067566,-0.0607098825275898,-0.035966068506240845
1777560240199683300,9.348683349609376,-0.026458339765667915,-0.11779394745826721,-0.04887574166059494
1777560240209723100,9.35872314453125,-0.026896696537733078,-0.14414751529693604,-0.04879850894212723
1777560240219764200,9.36876416015625,-0.024150561541318893,-0.13149650394916534,-0.06008562073111534
1777560240229805300,9.378805419921875,-0.019841833040118217,-0.12120791524648666,-0.06269124895334244
1777560240239846100,9.38884619140625,-0.02510884217917919,-0.11494092643260956,-0.026428937911987305
1777560240249886200,9.39888623046875,-0.04178768768906593,-0.15031330287456512,0.04281537979841232
1777560240259927300,9.40892724609375,-0.030239634215831757,-0.113691546022892,0.0953930914402008
1777560240269968400,9.418968505859375,-0.019817354157567024,-0.061849649995565414,0.09452463686466217
1777560240280009200,9.42900927734375,-0.013870282098650932,-0.03193374350667,0.05600576102733612
1777560240290049300,9.43904931640625,-0.009902936406433582,-0.003350120037794113,0.018301771953701973
1777560240300090400,9.44909033203125,-0.00986005924642086,0.0020571621134877205,-0.009245432913303375
1777560240310131200,9.459131103515626,-0.0013985007535666227,0.0047450740821659565,-0.01930946484208107
1777560240320172300,9.46917236328125,-0.0031777587719261646,0.010445037856698036,-0.01749691739678383
1777560240330212400,9.47921240234375,-0.008742699399590492,-0.00932307355105877,-0.01470911968499422
1777560240340253400,9.48925341796875,-0.007382896728813648,-0.03434653580188751,-0.004446480888873339
1777560240350294300,9.499294189453124,-0.004811348393559456,-0.037801988422870636,0.015309913083910942
1777560240360334300,9.509334228515625,-0.00928101409226656,-0.015553290024399757,0.026411179453134537
1777560240370375400,9.51937548828125,-0.01316603273153305,0.010494556277990341,0.027680177241563797
1777560240380416500,9.52941650390625,-0.011678637005388737,0.021573489531874657,0.02784689888358116
1777560240390457300,9.539457275390625,-0.009414950385689735,0.03958071768283844,0.027386171743273735
1777560240400497400,9.549497314453125,-0.009706968441605568,0.055784519761800766,0.014618253335356712
1777560240410538500,9.55953857421875,-0.00941934809088707,0.050005462020635605,-0.00262118736281991
1777560240420579300,9.569579345703126,-0.006623001769185066,0.030461106449365616,-0.01064569503068924
1777560240430620400,9.579620361328125,-0.004888750612735748,-0.015876030549407005,-0.009468045085668564
1777560240440660200,9.58966015625,0.006440384313464165,-0.05684378743171692,0.00008306838572025299
1777560240450701300,9.599701416015625,0.009204478934407234,-0.06340847909450531,0.012331479229032993
1777560240460742100,9.6097421875,-0.003007685299962759,-0.060677893459796906,0.015776406973600388
1777560240470783200,9.619783203125,-0.0023848670534789562,-0.056832700967788696,0.017813632264733315
1777560240480823300,9.6298232421875,-0.004351345356553793,-0.02833341807126999,0.035210199654102325
1777560240490864400,9.639864501953125,-0.00879589468240738,-0.011172805912792683,0.05258546397089958
1777560240500905200,9.6499052734375,-0.007765982300043106,-0.001810363493859768,0.0611533485352993
1777560240510946300,9.6599462890625,-0.0034324864391237497,-0.004366998095065355,0.06002097204327583
1777560240520986400,9.669986328125,0.003621947020292282,-0.006606449838727713,0.05887876823544502
1777560240531027200,9.680027099609376,0.002166529418900609,0.010343505069613457,0.05978690832853317
1777560240541068300,9.690068359375,-0.004320385865867138,0.027386456727981567,0.05055149272084236
1777560240551109400,9.700109375,-0.004480707924813032,0.03244885802268982,0.039972882717847824
1777560240561149400,9.7101494140625,-0.0033749761059880257,0.029757415875792503,0.041509632021188736
1777560240571190300,9.720190185546874,-0.00392528809607029,0.01580536551773548,0.05140732601284981
1777560240581231400,9.7302314453125,-0.00856131874024868,0.0036975699476897717,0.06769228726625443
1777560240591271400,9.740271484375,-0.010945380665361881,0.005168966483324766,0.079369455575943
1777560240601312500,9.7503125,-0.03146251291036606,0.009584021754562855,0.0862191766500473
1777560240611353300,9.760353271484375,-0.03795583173632622,0.0017324903747066855,0.09216974675655365
1777560240621394400,9.77039453125,-0.026475215330719948,0.03410547599196434,0.08935226500034332
1777560240631434500,9.7804345703125,-0.03709670156240463,0.06082763522863388,0.08240967243909836
1777560240641475300,9.790475341796874,-0.03907047212123871,0.05664219707250595,0.07496965676546097
1777560240651516400,9.800516357421875,-0.0343385674059391,0.05736284703016281,0.06719562411308289
1777560240661557500,9.8105576171875,-0.03129895031452179,0.04298996552824974,0.06440719217061996
1777560240671597300,9.820597412109375,-0.03733021020889282,0.02012006938457489,0.07219347357749939
1777560240681638100,9.83063818359375,-0.03977198898792267,0.00834651943296194,0.07771580666303635
1777560240691679200,9.84067919921875,-0.03811230883002281,0.012019550427794456,0.06837477535009384
1777560240701720300,9.85072021484375,-0.0366952158510685,0.015134966932237148,0.055063359439373016
1777560240711760400,9.860760498046876,-0.044205863028764725,0.020337717607617378,0.04730477184057236
1777560240721801200,9.87080126953125,-0.047715555876493454,0.03304029628634453,0.04653425142168999
1777560240731842300,9.88084228515625,-0.05937594175338745,0.041330184787511826,0.048018697649240494
1777560240741883400,9.89088330078125,-0.06402634084224701,0.01940762624144554,0.04437725245952606
1777560240751923200,9.900923095703124,-0.062452152371406555,-0.008243176154792309,0.05018773674964905
1777560240761964300,9.91096435546875,-0.06139335408806801,-0.031314559280872345,0.05796297639608383
1777560240772005400,9.92100537109375,-0.06380444765090942,-0.04288126528263092,0.06188307702541351
1777560240782046200,9.931046142578126,-0.061823055148124695,-0.050310686230659485,0.056725066155195236
1777560240792086300,9.941086181640625,-0.05890742316842079,-0.04889201745390892,0.04362524300813675
1777560240802127400,9.95112744140625,-0.04942682385444641,-0.03372553363442421,0.018252402544021606
1777560240812168400,9.96116845703125,-0.04344429820775986,-0.013039163313806057,-0.006138423923403025
1777560240822209300,9.971209228515624,-0.045418765395879745,-0.01597876101732254,-0.020866237580776215
1777560240832249300,9.981249267578125,-0.04289780184626579,0.008928186260163784,0.05261567234992981
1777560240842290700,9.991290771484374,-0.035429954528808594,-0.058880001306533813,0.06236962229013443
1777560240852331500,10.00133154296875,-0.02414107881486416,-0.15238545835018158,0.006846710108220577
1777560240862372600,10.01137255859375,-0.021792301908135414,-0.23328116536140442,-0.029380876570940018
1777560240872412700,10.02141259765625,-0.015549051575362682,-0.24942125380039215,0.01687689870595932
1777560240882453800,10.031453857421875,-0.01536827813833952,-0.1628398597240448,0.1422521471977234
